Folder: virtualizacija-procesa/Baterija/SoC Estimation on Li-ion Batteries A New EIS-based Dataset for data-driven applications/B05/EIS measurements/Test_2/Hioki

File: Hk_IFR14500_SoC_5_28-03-2023_04-39.csv
Frequency(Hz),R(ohm),X(ohm),V(V),T(deg C),Range(Ohm)
0.01,0.161703,-0.081101,3.19123,20,0.3
0.02,0.133373,-0.0607296,3.19588,20,0.3
0.03,0.12121,-0.0501474,3.19607,20,0.3
0.05,0.109562,-0.039389,3.1965,20,0.3
0.08,0.101132,-0.0318626,3.19669,20,0.3
0.1,0.0976667,-0.028922,3.19682,20,0.3
0.2,0.0886388,-0.0217125,3.19697,20,0.3
0.3,0.0843401,-0.0185136,3.19699,20,0.3
0.5,0.0797451,-0.0153025,3.19706,20,0.3
0.8,0.0761537,-0.0129899,3.1971,20,0.3
1.0,0.0746227,-0.012069,3.19718,20,0.3
2.0,0.0704197,-0.00974973,3.19723,20,0.3
3.0,0.0683128,-0.00869889,3.19727,20,0.3
5.0,0.0659888,-0.00757522,3.19731,20,0.3
8.0,0.0641766,-0.00686513,3.19733,20,0.3
10.0,0.0633811,-0.00664545,3.19736,20,0.3
11.0,0.0630587,-0.00659418,3.19738,20,0.3
21.0,0.0607316,-0.00643593,3.19739,20,0.3
31.0,0.0592109,-0.00648159,3.19741,20,0.3
61.0,0.0562477,-0.00664031,3.19742,20,0.3
81.0,0.0549247,-0.00662543,3.19737,20,0.3
100.0,0.0539494,-0.00654804,3.19738,20,0.3
110.0,0.05351,-0.00653016,3.19738,20,0.3
210.0,0.050476,-0.00591335,3.1974,20,0.3
310.0,0.0487163,-0.00525016,3.19739,20,0.3
510.0,0.0466542,-0.00402354,3.19741,20,0.3
810.0,0.0449002,-0.00238099,3.1974,20,0.3
1000.0,0.0441631,-0.00138504,3.19739,20,0.3

File: Hk_IFR14500_SoC_10_28-03-2023_03-38.csv
Frequency(Hz),R(ohm),X(ohm),V(V),T(deg C),Range(Ohm)
0.01,0.156065,-0.0750497,3.20361,20,0.3
0.02,0.129153,-0.0567435,3.20799,20,0.3
0.03,0.117665,-0.0469713,3.20816,20,0.3
0.05,0.106687,-0.0368879,3.20856,20,0.3
0.08,0.0988018,-0.0298335,3.20873,20,0.3
0.1,0.0955655,-0.0270779,3.20886,20,0.3
0.2,0.0871092,-0.0203229,3.20901,20,0.3
0.3,0.0830791,-0.0173193,3.20903,20,0.3
0.5,0.0788038,-0.0143015,3.20909,20,0.3
0.8,0.0754619,-0.0121325,3.20915,20,0.3
1.0,0.07405,-0.0112893,3.2092,20,0.3
2.0,0.0701489,-0.00919124,3.20925,20,0.3
3.0,0.0681438,-0.00824984,3.20931,20,0.3
5.0,0.0659482,-0.00733073,3.20934,20,0.3
8.0,0.0641543,-0.00670819,3.20936,20,0.3
10.0,0.063352,-0.00649133,3.20939,20,0.3
11.0,0.0630205,-0.00646102,3.2094,20,0.3
21.0,0.0607173,-0.00638334,3.2094,20,0.3
31.0,0.0591948,-0.00649361,3.20941,20,0.3
61.0,0.0562313,-0.00661408,3.20943,20,0.3
81.0,0.0549215,-0.00660626,3.20941,20,0.3
100.0,0.0539578,-0.00654771,3.20941,20,0.3
110.0,0.0534703,-0.00649378,3.2094,20,0.3
210.0,0.0504259,-0.00593039,3.20942,20,0.3
310.0,0.048675,-0.00529321,3.20941,20,0.3
510.0,0.0465929,-0.00407803,3.20941,20,0.3
810.0,0.044823,-0.0024222,3.20941,20,0.3
1000.0,0.044081,-0.00144926,3.20941,20,0.3

File: Hk_IFR14500_SoC_15_28-03-2023_02-50.csv
Frequency(Hz),R(ohm),X(ohm),V(V),T(deg C),Range(Ohm)
0.01,0.151821,-0.0711037,3.23014,20,0.3
0.02,0.125874,-0.0540741,3.23422,20,0.3
0.03,0.114837,-0.0447778,3.2343,20,0.3
0.05,0.104356,-0.0351395,3.23463,20,0.3
0.08,0.0968613,-0.0283744,3.2348,20,0.3
0.1,0.0938076,-0.0257454,3.23491,20,0.3
0.2,0.0857915,-0.0192835,3.23504,20,0.3
0.3,0.0819869,-0.0164075,3.23504,20,0.3
0.5,0.0779434,-0.0135169,3.23511,20,0.3
0.8,0.0748304,-0.0114623,3.23516,20,0.3
1.0,0.0734945,-0.0106551,3.23521,20,0.3
2.0,0.0698333,-0.00871017,3.23527,20,0.3
3.0,0.0679495,-0.00787158,3.2353,20,0.3
5.0,0.0658289,-0.00704925,3.23534,20,0.3
8.0,0.0640669,-0.00652078,3.23537,20,0.3
10.0,0.0632968,-0.00638006,3.23538,20,0.3
11.0,0.0629702,-0.00633881,3.2354,20,0.3
21.0,0.0606685,-0.00627078,3.23543,20,0.3
31.0,0.0591452,-0.00643776,3.23542,20,0.3
61.0,0.0562378,-0.00659613,3.23543,20,0.3
81.0,0.0549287,-0.00659524,3.23542,20,0.3
100.0,0.053947,-0.00653818,3.23542,20,0.3
110.0,0.053481,-0.00651545,3.23543,20,0.3
210.0,0.0504039,-0.00598784,3.23541,20,0.3
310.0,0.0486588,-0.00530592,3.23542,20,0.3
510.0,0.0465401,-0.00411266,3.23542,20,0.3
810.0,0.0447562,-0.00247815,3.23542,20,0.3
1000.0,0.0440099,-0.00147997,3.23541,20,0.3

File: Hk_IFR14500_SoC_20_28-03-2023_01-50.csv
Frequency(Hz),R(ohm),X(ohm),V(V),T(deg C),Range(Ohm)
0.01,0.147638,-0.0669691,3.25115,20,0.3
0.02,0.122536,-0.0512139,3.25488,20,0.3
0.03,0.111994,-0.0424307,3.25489,20,0.3
0.05,0.102028,-0.0332584,3.25517,20,0.3
0.08,0.0949401,-0.0268111,3.2553,20,0.3
0.1,0.092059,-0.0243113,3.25539,20,0.3
0.2,0.084514,-0.0181622,3.25551,20,0.3
0.3,0.0809442,-0.0154343,3.25551,20,0.3
0.5,0.0771603,-0.0126877,3.25557,20,0.3
0.8,0.0742508,-0.0107499,3.25561,20,0.3
1.0,0.0730243,-0.0100087,3.25567,20,0.3
2.0,0.0696128,-0.00822503,3.25572,20,0.3
3.0,0.0678486,-0.00747711,3.25576,20,0.3
5.0,0.0658297,-0.00678974,3.25578,20,0.3
8.0,0.0640981,-0.00634022,3.25582,20,0.3
10.0,0.0633369,-0.00624987,3.25582,20,0.3
11.0,0.0630173,-0.006198,3.25584,20,0.3
21.0,0.0607334,-0.00622057,3.25585,20,0.3
31.0,0.0592129,-0.00639669,3.25585,20,0.3
61.0,0.0562629,-0.00659482,3.25586,20,0.3
81.0,0.0549606,-0.00659803,3.25585,20,0.3
100.0,0.0539597,-0.00656533,3.25585,20,0.3
110.0,0.0535281,-0.00652194,3.25584,20,0.3
210.0,0.0504408,-0.00600873,3.25584,20,0.3
310.0,0.0486739,-0.00537219,3.25585,20,0.3
510.0,0.0465254,-0.004188,3.25587,20,0.3
810.0,0.0447084,-0.00253344,3.25585,20,0.3
1000.0,0.0439474,-0.00156347,3.25585,20,0.3

File: Hk_IFR14500_SoC_25_28-03-2023_01-02.csv
Frequency(Hz),R(ohm),X(ohm),V(V),T(deg C),Range(Ohm)
0.01,0.144324,-0.0642449,3.26636,20,0.3
0.02,0.119986,-0.0493042,3.27034,20,0.3
0.03,0.109785,-0.0408254,3.27048,20,0.3
0.05,0.100193,-0.0319224,3.2708,20,0.3
0.08,0.0934161,-0.0256905,3.27095,20,0.3
0.1,0.0906664,-0.023274,3.27106,20,0.3
0.2,0.0834825,-0.0173443,3.2712,20,0.3
0.3,0.0800939,-0.0147185,3.2712,20,0.3
0.5,0.076513,-0.0120844,3.27127,20,0.3
0.8,0.0737604,-0.0102139,3.27131,20,0.3
1.0,0.0725922,-0.00949426,3.27137,20,0.3
2.0,0.0693818,-0.00782468,3.2714,20,0.3
3.0,0.0677095,-0.00716265,3.27145,20,0.3
5.0,0.0657615,-0.00653524,3.27147,20,0.3
8.0,0.0640963,-0.00620046,3.27149,20,0.3
10.0,0.0633235,-0.00606415,3.27152,20,0.3
11.0,0.0630253,-0.00609408,3.27153,20,0.3
21.0,0.060772,-0.0061595,3.27154,20,0.3
31.0,0.0592389,-0.00633754,3.27155,20,0.3
61.0,0.056309,-0.00657923,3.27155,20,0.3
81.0,0.0549909,-0.00658093,3.27154,20,0.3
100.0,0.0540092,-0.00655116,3.27155,20,0.3
110.0,0.0535785,-0.00651161,3.27153,20,0.3
210.0,0.05051,-0.0060065,3.27154,20,0.3
310.0,0.0486767,-0.00540208,3.27154,20,0.3
510.0,0.0465422,-0.00422141,3.27155,20,0.3
810.0,0.0447059,-0.00256649,3.27153,20,0.3
1000.0,0.043937,-0.00158925,3.27154,20,0.3

File: Hk_IFR14500_SoC_30_28-03-2023_00-01.csv
Frequency(Hz),R(ohm),X(ohm),V(V),T(deg C),Range(Ohm)
0.01,0.141241,-0.0620403,3.27888,20,0.3
0.02,0.117324,-0.0475959,3.2829,20,0.3
0.03,0.10742,-0.039321,3.2831,20,0.3
0.05,0.0982123,-0.03064,3.28346,20,0.3
0.08,0.0917518,-0.024596,3.28363,20,0.3
0.1,0.0891336,-0.0222502,3.28375,20,0.3
0.2,0.0823117,-0.0165184,3.2839,20,0.3
0.3,0.0791024,-0.0139806,3.28392,20,0.3
0.5,0.0757196,-0.011447,3.28397,20,0.3
0.8,0.0731408,-0.00966154,3.284,20,0.3
1.0,0.0720569,-0.00898369,3.28409,20,0.3
2.0,0.0690533,-0.00741787,3.28412,20,0.3
3.0,0.0674604,-0.00679499,3.28416,20,0.3
5.0,0.0656103,-0.00626849,3.28417,20,0.3
8.0,0.0640224,-0.00598613,3.2842,20,0.3
10.0,0.0632655,-0.00590002,3.28421,20,0.3
11.0,0.0629565,-0.00590546,3.28423,20,0.3
21.0,0.0607002,-0.00606958,3.28423,20,0.3
31.0,0.0592322,-0.00627809,3.28425,20,0.3
61.0,0.0563268,-0.00651977,3.28427,20,0.3
81.0,0.0550482,-0.00653636,3.28424,20,0.3
100.0,0.054046,-0.00650929,3.28425,20,0.3
110.0,0.0535979,-0.00648417,3.28424,20,0.3
210.0,0.0505292,-0.00601256,3.28425,20,0.3
310.0,0.0487264,-0.00540637,3.28425,20,0.3
510.0,0.046561,-0.0042498,3.28424,20,0.3
810.0,0.0447001,-0.00260014,3.28424,20,0.3
1000.0,0.0439267,-0.00161791,3.28424,20,0.3

File: Hk_IFR14500_SoC_35_27-03-2023_23-13.csv
Frequency(Hz),R(ohm),X(ohm),V(V),T(deg C),Range(Ohm)
0.01,0.138844,-0.0602085,3.28218,20,0.3
0.02,0.115378,-0.0463091,3.28555,20,0.3
0.03,0.105726,-0.0382457,3.28555,20,0.3
0.05,0.0967885,-0.0297481,3.2858,20,0.3
0.08,0.0905477,-0.0238108,3.28593,20,0.3
0.1,0.0880351,-0.0215313,3.28602,20,0.3
0.2,0.0814731,-0.0159379,3.28613,20,0.3
0.3,0.0783923,-0.0134693,3.28614,20,0.3
0.5,0.0751482,-0.0109932,3.28622,20,0.3
0.8,0.0726756,-0.00926043,3.28625,20,0.3
1.0,0.0716519,-0.00860868,3.28628,20,0.3
2.0,0.0687892,-0.00711894,3.28632,20,0.3
3.0,0.0672902,-0.00655045,3.28637,20,0.3
5.0,0.0655091,-0.00607448,3.28641,20,0.3
8.0,0.0639355,-0.00582174,3.28642,20,0.3
10.0,0.0631997,-0.0057841,3.28643,20,0.3
11.0,0.0628975,-0.00580068,3.28643,20,0.3
21.0,0.0607007,-0.00601586,3.28644,20,0.3
31.0,0.0592019,-0.00618766,3.28645,20,0.3
61.0,0.0563302,-0.00646491,3.28645,20,0.3
81.0,0.055049,-0.00650088,3.28645,20,0.3
100.0,0.0540612,-0.00648928,3.28646,20,0.3
110.0,0.0536193,-0.00647316,3.28646,20,0.3
210.0,0.0505111,-0.00599439,3.28645,20,0.3
310.0,0.0487429,-0.00539194,3.28646,20,0.3
510.0,0.046598,-0.0042377,3.28645,20,0.3
810.0,0.0447399,-0.00259741,3.28645,20,0.3
1000.0,0.0439522,-0.00162383,3.28647,20,0.3

File: Hk_IFR14500_SoC_40_27-03-2023_22-13.csv
Frequency(Hz),R(ohm),X(ohm),V(V),T(deg C),Range(Ohm)
0.01,0.136696,-0.0586796,3.28365,20,0.3
0.02,0.1135,-0.0451636,3.2867,20,0.3
0.03,0.104057,-0.0372304,3.28663,20,0.3
0.05,0.0953666,-0.0288764,3.28686,20,0.3
0.08,0.0893427,-0.0230637,3.28698,20,0.3
0.1,0.0869135,-0.0208326,3.28706,20,0.3
0.2,0.0806049,-0.0153609,3.28717,20,0.3
0.3,0.0776503,-0.0129614,3.28718,20,0.3
0.5,0.07455,-0.0105522,3.28721,20,0.3
0.8,0.0721982,-0.00888065,3.28727,20,0.3
1.0,0.0712203,-0.00824685,3.28729,20,0.3
2.0,0.0685181,-0.00682231,3.28735,20,0.3
3.0,0.0670706,-0.00627402,3.28738,20,0.3
5.0,0.0653676,-0.00587744,3.28741,20,0.3
8.0,0.0638621,-0.0056809,3.28743,20,0.3
10.0,0.0631441,-0.005642,3.28745,20,0.3
11.0,0.0628534,-0.00566149,3.28745,20,0.3
21.0,0.060691,-0.0058646,3.28746,20,0.3
31.0,0.0591954,-0.00614253,3.28746,20,0.3
61.0,0.0563605,-0.00641991,3.28748,20,0.3
81.0,0.0550403,-0.0064875,3.28746,20,0.3
100.0,0.0540873,-0.00647358,3.28746,20,0.3
110.0,0.0535989,-0.00643808,3.28747,20,0.3
210.0,0.0505498,-0.00599198,3.28745,20,0.3
310.0,0.0487799,-0.00538723,3.28748,20,0.3
510.0,0.0466176,-0.0042249,3.28745,20,0.3
810.0,0.0447721,-0.00260091,3.28746,20,0.3
1000.0,0.0439873,-0.00164538,3.28747,20,0.3

File: Hk_IFR14500_SoC_45_27-03-2023_21-25.csv
Frequency(Hz),R(ohm),X(ohm),V(V),T(deg C),Range(Ohm)
0.01,0.134636,-0.0572867,3.28444,20,0.3
0.02,0.111903,-0.0442012,3.28739,20,0.3
0.03,0.102683,-0.0364321,3.28733,20,0.3
0.05,0.0942315,-0.0282108,3.28757,20,0.3
0.08,0.0883938,-0.022486,3.28768,20,0.3
0.1,0.0860484,-0.0202972,3.28778,20,0.3
0.2,0.0799395,-0.0149342,3.28789,20,0.3
0.3,0.0770813,-0.0125753,3.2879,20,0.3
0.5,0.0740944,-0.0102213,3.28795,20,0.3
0.8,0.0718279,-0.00857928,3.28799,20,0.3
1.0,0.0708812,-0.00794902,3.28803,20,0.3
2.0,0.0682913,-0.00658191,3.28808,20,0.3
3.0,0.0669102,-0.00607889,3.28811,20,0.3
5.0,0.0652787,-0.00572595,3.28813,20,0.3
8.0,0.0637892,-0.00554366,3.28815,20,0.3
10.0,0.0631209,-0.00558216,3.28817,20,0.3
11.0,0.0628065,-0.00557464,3.28819,20,0.3
21.0,0.0606613,-0.00583013,3.28818,20,0.3
31.0,0.0592069,-0.00605593,3.28818,20,0.3
61.0,0.0563515,-0.00637981,3.2882,20,0.3
81.0,0.0550583,-0.00644137,3.28819,20,0.3
100.0,0.0540934,-0.00642294,3.28819,20,0.3
110.0,0.0536344,-0.00642678,3.28819,20,0.3
210.0,0.0506151,-0.00596856,3.2882,20,0.3
310.0,0.0487949,-0.00537894,3.28818,20,0.3
510.0,0.0466334,-0.00421334,3.28819,20,0.3
810.0,0.0447856,-0.00259782,3.28819,20,0.3
1000.0,0.0440043,-0.00162818,3.28818,20,0.3

File: Hk_IFR14500_SoC_50_27-03-2023_20-24.csv
Frequency(Hz),R(ohm),X(ohm),V(V),T(deg C),Range(Ohm)
0.01,0.132829,-0.0572352,3.28627,20,0.3
0.02,0.110367,-0.0438877,3.2892,20,0.3
0.03,0.101316,-0.036013,3.28917,20,0.3
0.05,0.0930551,-0.0277358,3.28942,20,0.3
0.08,0.0873901,-0.0220306,3.28955,20,0.3
0.1,0.0851156,-0.0198468,3.28966,20,0.3
0.2,0.0792096,-0.0145376,3.28977,20,0.3
0.3,0.0764463,-0.0122091,3.28978,20,0.3
0.5,0.0735643,-0.00989859,3.28984,20,0.3
0.8,0.0713843,-0.00828381,3.28988,20,0.3
1.0,0.070483,-0.00768183,3.28991,20,0.3
2.0,0.0679947,-0.00632282,3.28995,20,0.3
3.0,0.0666795,-0.0058717,3.28999,20,0.3
5.0,0.0651081,-0.00553149,3.29002,20,0.3
8.0,0.0636764,-0.00540814,3.29004,20,0.3
10.0,0.0630141,-0.00543525,3.29004,20,0.3
11.0,0.0627123,-0.00544251,3.29006,20,0.3
21.0,0.0605947,-0.00572981,3.29007,20,0.3
31.0,0.0591664,-0.00597767,3.29007,20,0.3
61.0,0.05631,-0.0063332,3.29006,20,0.3
81.0,0.0550527,-0.0063906,3.29008,20,0.3
100.0,0.0541028,-0.00638502,3.29007,20,0.3
110.0,0.0536442,-0.00638044,3.29006,20,0.3
210.0,0.0505845,-0.00593554,3.29007,20,0.3
310.0,0.048818,-0.00535283,3.29006,20,0.3
510.0,0.0466605,-0.00422737,3.29007,20,0.3
810.0,0.0448223,-0.00260099,3.29007,20,0.3
1000.0,0.0440203,-0.00163211,3.29006,20,0.3

File: Hk_IFR14500_SoC_55_27-03-2023_19-36.csv
Frequency(Hz),R(ohm),X(ohm),V(V),T(deg C),Range(Ohm)
0.01,0.132143,-0.0594424,3.28984,20,0.3
0.02,0.109557,-0.0449716,3.29312,20,0.3
0.03,0.100567,-0.0366855,3.29333,20,0.3
0.05,0.0923839,-0.0280395,3.29371,20,0.3
0.08,0.0868063,-0.0221296,3.29393,20,0.3
0.1,0.0845737,-0.0198858,3.29407,20,0.3
0.2,0.0787784,-0.0144433,3.29423,20,0.3
0.3,0.0760822,-0.0120875,3.29428,20,0.3
0.5,0.073267,-0.00975193,3.29435,20,0.3
0.8,0.0711498,-0.00814223,3.29438,20,0.3
1.0,0.0702643,-0.00752901,3.29443,20,0.3
2.0,0.0678607,-0.00620106,3.29446,20,0.3
3.0,0.0666021,-0.00576597,3.2945,20,0.3
5.0,0.0650519,-0.00541303,3.29454,20,0.3
8.0,0.0636524,-0.00531114,3.29454,20,0.3
10.0,0.063003,-0.00535108,3.29456,20,0.3
11.0,0.0627077,-0.00537505,3.29458,20,0.3
21.0,0.0606151,-0.00570135,3.29458,20,0.3
31.0,0.0591629,-0.00596367,3.29459,20,0.3
61.0,0.0563451,-0.00632467,3.29461,20,0.3
81.0,0.0550904,-0.00637287,3.2946,20,0.3
100.0,0.0541376,-0.0063882,3.29459,20,0.3
110.0,0.0536706,-0.00637155,3.2946,20,0.3
210.0,0.0506663,-0.00591287,3.29459,20,0.3
310.0,0.048848,-0.00536723,3.2946,20,0.3
510.0,0.0466874,-0.00422632,3.29458,20,0.3
810.0,0.044835,-0.00262486,3.29459,20,0.3
1000.0,0.0440593,-0.00164115,3.29458,20,0.3

File: Hk_IFR14500_SoC_60_27-03-2023_18-35.csv
Frequency(Hz),R(ohm),X(ohm),V(V),T(deg C),Range(Ohm)
0.01,0.133504,-0.0673117,3.30478,20,0.3
0.02,0.109997,-0.0493124,3.31085,20,0.3
0.03,0.1007,-0.039701,3.31222,20,0.3
0.05,0.0923018,-0.0299509,3.31324,20,0.3
0.08,0.0865878,-0.0233578,3.31383,20,0.3
0.1,0.0843274,-0.0208745,3.31422,20,0.3
0.2,0.0784645,-0.0149534,3.31451,20,0.3
0.3,0.0757593,-0.0124201,3.31465,20,0.3
0.5,0.0729375,-0.00993944,3.31479,20,0.3
0.8,0.070824,-0.00823941,3.31487,20,0.3
1.0,0.0699482,-0.0076066,3.31493,20,0.3
2.0,0.0675492,-0.00619181,3.31498,20,0.3
3.0,0.066313,-0.00571666,3.31504,20,0.3
5.0,0.0648035,-0.00537637,3.31507,20,0.3
8.0,0.0634333,-0.00527523,3.3151,20,0.3
10.0,0.0627706,-0.00529938,3.31511,20,0.3
11.0,0.0624617,-0.0052738,3.31513,20,0.3
21.0,0.0604079,-0.00558644,3.31514,20,0.3
31.0,0.0589951,-0.00587738,3.31515,20,0.3
61.0,0.0562285,-0.00622109,3.31515,20,0.3
81.0,0.0549915,-0.00628756,3.31515,20,0.3
100.0,0.0540236,-0.00629187,3.31514,20,0.3
110.0,0.0535917,-0.00626532,3.31516,20,0.3
210.0,0.0505681,-0.0059022,3.31515,20,0.3
310.0,0.0488274,-0.00532207,3.31516,20,0.3
510.0,0.0466612,-0.00418331,3.31515,20,0.3
810.0,0.0448006,-0.00260316,3.31516,20,0.3
1000.0,0.0440266,-0.00164144,3.31515,20,0.3

File: Hk_IFR14500_SoC_65_27-03-2023_17-47.csv
Frequency(Hz),R(ohm),X(ohm),V(V),T(deg C),Range(Ohm)
0.01,0.133093,-0.0646744,3.31868,20,0.3
0.02,0.109358,-0.047277,3.32316,20,0.3
0.03,0.100056,-0.0380105,3.32363,20,0.3
0.05,0.0917545,-0.028729,3.32416,20,0.3
0.08,0.0861539,-0.0224562,3.32442,20,0.3
0.1,0.0839069,-0.020082,3.32461,20,0.3
0.2,0.0781961,-0.0144394,3.32481,20,0.3
0.3,0.0755452,-0.0120151,3.32485,20,0.3
0.5,0.0727911,-0.00963355,3.32493,20,0.3
0.8,0.0707399,-0.0080109,3.32498,20,0.3
1.0,0.0698628,-0.00738174,3.32503,20,0.3
2.0,0.0675386,-0.00605081,3.32508,20,0.3
3.0,0.0663267,-0.00557976,3.32512,20,0.3
5.0,0.0648513,-0.00526868,3.32513,20,0.3
8.0,0.0634984,-0.00519496,3.32517,20,0.3
10.0,0.0628629,-0.00523659,3.32519,20,0.3
11.0,0.0625812,-0.00527054,3.32519,20,0.3
21.0,0.0605298,-0.00553621,3.3252,20,0.3
31.0,0.0591281,-0.00584943,3.32519,20,0.3
61.0,0.0563458,-0.00623982,3.32521,20,0.3
81.0,0.0550696,-0.00629743,3.3252,20,0.3
100.0,0.0541008,-0.006314,3.32519,20,0.3
110.0,0.0536731,-0.00629486,3.3252,20,0.3
210.0,0.0506461,-0.00596617,3.32521,20,0.3
310.0,0.0488552,-0.00538777,3.3252,20,0.3
510.0,0.0466921,-0.00425205,3.32521,20,0.3
810.0,0.0448072,-0.00264143,3.3252,20,0.3
1000.0,0.0440193,-0.00168101,3.32521,20,0.3

File: Hk_IFR14500_SoC_70_27-03-2023_16-47.csv
Frequency(Hz),R(ohm),X(ohm),V(V),T(deg C),Range(Ohm)
0.01,0.130474,-0.0612146,3.3224,20,0.3
0.02,0.107532,-0.0452471,3.32539,20,0.3
0.03,0.0986844,-0.0365009,3.32547,20,0.3
0.05,0.090802,-0.0276288,3.32577,20,0.3
0.08,0.0854643,-0.0216101,3.32593,20,0.3
0.1,0.0833482,-0.0193454,3.32605,20,0.3
0.2,0.077863,-0.0139145,3.32618,20,0.3
0.3,0.0753196,-0.0115918,3.32622,20,0.3
0.5,0.0726692,-0.00930132,3.32627,20,0.3
0.8,0.0706806,-0.00772997,3.32631,20,0.3
1.0,0.0698601,-0.00714608,3.32637,20,0.3
2.0,0.0676032,-0.00584937,3.3264,20,0.3
3.0,0.0664344,-0.00542635,3.32642,20,0.3
5.0,0.0649984,-0.00513767,3.32646,20,0.3
8.0,0.0636872,-0.00509741,3.32648,20,0.3
10.0,0.0630544,-0.00515754,3.3265,20,0.3
11.0,0.0627666,-0.00517938,3.32649,20,0.3
21.0,0.0607189,-0.00556723,3.3265,20,0.3
31.0,0.0593145,-0.00589917,3.32652,20,0.3
61.0,0.0565282,-0.00629383,3.3265,20,0.3
81.0,0.0552462,-0.00638684,3.32651,20,0.3
100.0,0.0542744,-0.00639486,3.32651,20,0.3
110.0,0.0537996,-0.00639133,3.3265,20,0.3
210.0,0.0507684,-0.00599577,3.32651,20,0.3
310.0,0.0489262,-0.00545349,3.32651,20,0.3
510.0,0.0467203,-0.00434498,3.32652,20,0.3
810.0,0.0448136,-0.00271638,3.3265,20,0.3
1000.0,0.0440176,-0.00173285,3.32651,20,0.3

File: Hk_IFR14500_SoC_75_27-03-2023_15-59.csv
Frequency(Hz),R(ohm),X(ohm),V(V),T(deg C),Range(Ohm)
0.01,0.12816,-0.0587134,3.32307,20,0.3
0.02,0.105742,-0.043605,3.32573,20,0.3
0.03,0.097139,-0.0351832,3.32576,20,0.3
0.05,0.0895079,-0.026579,3.32601,20,0.3
0.08,0.0843815,-0.0207603,3.32616,20,0.3
0.1,0.0823597,-0.0185797,3.3263,20,0.3
0.2,0.077105,-0.0133444,3.32641,20,0.3
0.3,0.0746686,-0.0111086,3.32644,20,0.3
0.5,0.0721337,-0.00891157,3.32649,20,0.3
0.8,0.0702418,-0.00742266,3.32654,20,0.3
1.0,0.0694394,-0.00683538,3.32659,20,0.3
2.0,0.0672862,-0.00560856,3.32663,20,0.3
3.0,0.0661759,-0.0052316,3.32665,20,0.3
5.0,0.0647927,-0.00496188,3.32667,20,0.3
8.0,0.0635543,-0.00497632,3.32671,20,0.3
10.0,0.062908,-0.00500423,3.3267,20,0.3
11.0,0.0626463,-0.00506146,3.32671,20,0.3
21.0,0.0606366,-0.00547768,3.32671,20,0.3
31.0,0.0592513,-0.00574595,3.32672,20,0.3
61.0,0.0564775,-0.00625558,3.32672,20,0.3
81.0,0.0552211,-0.00633355,3.32672,20,0.3
100.0,0.0542454,-0.00636222,3.32671,20,0.3
110.0,0.0537944,-0.00633885,3.32672,20,0.3
210.0,0.0506996,-0.00599549,3.32671,20,0.3
310.0,0.0489101,-0.00547463,3.32672,20,0.3
510.0,0.0466914,-0.00433309,3.32674,20,0.3
810.0,0.04479,-0.00273502,3.32672,20,0.3
1000.0,0.0439778,-0.0017594,3.32672,20,0.3

File: Hk_IFR14500_SoC_80_27-03-2023_14-58.csv
Frequency(Hz),R(ohm),X(ohm),V(V),T(deg C),Range(Ohm)
0.01,0.125279,-0.0560622,3.32375,20,0.3
0.02,0.103581,-0.0417399,3.32619,20,0.3
0.03,0.0953109,-0.0336442,3.32618,20,0.3
0.05,0.0880294,-0.0253546,3.32641,20,0.3
0.08,0.0831779,-0.0197689,3.32654,20,0.3
0.1,0.0812649,-0.0176782,3.32664,20,0.3
0.2,0.0763038,-0.0126813,3.32676,20,0.3
0.3,0.0739917,-0.0105556,3.32678,20,0.3
0.5,0.0715883,-0.00846702,3.32685,20,0.3
0.8,0.0697892,-0.00704527,3.32689,20,0.3
1.0,0.0690466,-0.00651458,3.32692,20,0.3
2.0,0.0670161,-0.00535905,3.32695,20,0.3
3.0,0.0659268,-0.0049837,3.32699,20,0.3
5.0,0.0646408,-0.0047879,3.327,20,0.3
8.0,0.0634289,-0.00482219,3.32702,20,0.3
10.0,0.0627989,-0.00486851,3.32702,20,0.3
11.0,0.0625478,-0.00489948,3.32704,20,0.3
21.0,0.0605919,-0.00537578,3.32705,20,0.3
31.0,0.0592125,-0.00569748,3.32706,20,0.3
61.0,0.0564366,-0.00620049,3.32705,20,0.3
81.0,0.055202,-0.00630741,3.32704,20,0.3
100.0,0.0542195,-0.00632153,3.32707,20,0.3
110.0,0.053798,-0.0063137,3.32705,20,0.3
210.0,0.0507422,-0.00600132,3.32704,20,0.3
310.0,0.0488994,-0.00549157,3.32705,20,0.3
510.0,0.0466792,-0.00435964,3.32706,20,0.3
810.0,0.0447674,-0.00275668,3.32705,20,0.3
1000.0,0.0439174,-0.00177358,3.32705,20,0.3

File: Hk_IFR14500_SoC_85_27-03-2023_14-10.csv
Frequency(Hz),R(ohm),X(ohm),V(V),T(deg C),Range(Ohm)
0.01,0.122914,-0.0536418,3.32385,20,0.3
0.02,0.101911,-0.0400936,3.3262,20,0.3
0.03,0.0939463,-0.0323187,3.32619,20,0.3
0.05,0.086988,-0.0243189,3.32644,20,0.3
0.08,0.0823816,-0.0189291,3.32659,20,0.3
0.1,0.0805688,-0.01691,3.3267,20,0.3
0.2,0.0758628,-0.0121149,3.32682,20,0.3
0.3,0.073676,-0.0100759,3.32684,20,0.3
0.5,0.071393,-0.00809182,3.3269,20,0.3
0.8,0.0696815,-0.00674334,3.32693,20,0.3
1.0,0.0689595,-0.00622687,3.32699,20,0.3
2.0,0.0670057,-0.00514664,3.32701,20,0.3
3.0,0.0659828,-0.00481913,3.32704,20,0.3
5.0,0.0647357,-0.00466782,3.32705,20,0.3
8.0,0.0635482,-0.00471569,3.32707,20,0.3
10.0,0.0629698,-0.00478846,3.3271,20,0.3
11.0,0.0627001,-0.00484243,3.3271,20,0.3
21.0,0.0607521,-0.00533811,3.3271,20,0.3
31.0,0.0594088,-0.00569805,3.3271,20,0.3
61.0,0.0566244,-0.00621761,3.32711,20,0.3
81.0,0.0553275,-0.00635291,3.32711,20,0.3
100.0,0.0543666,-0.00637921,3.32711,20,0.3
110.0,0.0539345,-0.0063965,3.3271,20,0.3
210.0,0.050844,-0.00607204,3.32711,20,0.3
310.0,0.0490063,-0.00554263,3.32711,20,0.3
510.0,0.0467349,-0.00442964,3.3271,20,0.3
810.0,0.0447855,-0.00281316,3.3271,20,0.3
1000.0,0.0439513,-0.00185414,3.32711,20,0.3

File: Hk_IFR14500_SoC_90_27-03-2023_13-09.csv
Frequency(Hz),R(ohm),X(ohm),V(V),T(deg C),Range(Ohm)
0.01,0.120191,-0.0516252,3.32422,20,0.3
0.02,0.0999821,-0.0384639,3.32646,20,0.3
0.03,0.0923701,-0.0309045,3.32645,20,0.3
0.05,0.0857805,-0.0231429,3.32671,20,0.3
0.08,0.0814436,-0.0179356,3.32686,20,0.3
0.1,0.0797415,-0.0159943,3.32699,20,0.3
0.2,0.0753669,-0.0114007,3.3271,20,0.3
0.3,0.0733321,-0.00948144,3.32713,20,0.3
0.5,0.0712005,-0.00761454,3.32721,20,0.3
0.8,0.0695951,-0.00635491,3.32725,20,0.3
1.0,0.0689241,-0.00588126,3.32727,20,0.3
2.0,0.0670807,-0.00489662,3.3273,20,0.3
3.0,0.0660938,-0.00459372,3.32733,20,0.3
5.0,0.0649088,-0.00449448,3.32733,20,0.3
8.0,0.0637743,-0.00459855,3.32736,20,0.3
10.0,0.0632062,-0.00472027,3.32736,20,0.3
11.0,0.0629394,-0.00475802,3.32738,20,0.3
21.0,0.0610313,-0.00532149,3.32739,20,0.3
31.0,0.0596124,-0.00574912,3.3274,20,0.3
61.0,0.0568376,-0.00629109,3.3274,20,0.3
81.0,0.0555341,-0.0064195,3.32739,20,0.3
100.0,0.0545697,-0.00646902,3.32739,20,0.3
110.0,0.0540906,-0.00645103,3.32738,20,0.3
210.0,0.050966,-0.00614534,3.32741,20,0.3
310.0,0.0490872,-0.00562942,3.3274,20,0.3
510.0,0.0467965,-0.00453282,3.3274,20,0.3
810.0,0.0448076,-0.00290807,3.3274,20,0.3
1000.0,0.0439648,-0.00193261,3.32741,20,0.3

File: Hk_IFR14500_SoC_95_27-03-2023_12-21.csv
Frequency(Hz),R(ohm),X(ohm),V(V),T(deg C),Range(Ohm)
0.01,0.117168,-0.0516892,3.32548,20,0.3
0.02,0.0977329,-0.0379046,3.32759,20,0.3
0.03,0.0905386,-0.0302354,3.32766,20,0.3
0.05,0.0843569,-0.0224282,3.32793,20,0.3
0.08,0.0803201,-0.0172205,3.32811,20,0.3
0.1,0.0787501,-0.0152985,3.32824,20,0.3
0.2,0.0747211,-0.0107949,3.32836,20,0.3
0.3,0.0728459,-0.00894074,3.32841,20,0.3
0.5,0.0708865,-0.0071614,3.32847,20,0.3
0.8,0.0693823,-0.00596981,3.3285,20,0.3
1.0,0.0687691,-0.00554519,3.32854,20,0.3
2.0,0.0670458,-0.00464619,3.32858,20,0.3
3.0,0.0661285,-0.00439007,3.32861,20,0.3
5.0,0.0650022,-0.00433433,3.32863,20,0.3
8.0,0.0638945,-0.00449333,3.32865,20,0.3
10.0,0.0633357,-0.00459053,3.32865,20,0.3
11.0,0.0630805,-0.0046727,3.32866,20,0.3
21.0,0.0611752,-0.0053085,3.32867,20,0.3
31.0,0.0598034,-0.00571061,3.32866,20,0.3
61.0,0.0569692,-0.00632765,3.32868,20,0.3
81.0,0.0556681,-0.00647651,3.32866,20,0.3
100.0,0.0546963,-0.00651761,3.32866,20,0.3
110.0,0.0542323,-0.00654179,3.32868,20,0.3
210.0,0.0510291,-0.00623692,3.32867,20,0.3
310.0,0.0491538,-0.00570351,3.32867,20,0.3
510.0,0.0468187,-0.00460591,3.32867,20,0.3
810.0,0.0448169,-0.00298419,3.32866,20,0.3
1000.0,0.0439698,-0.00200809,3.32868,20,0.3

File: Hk_IFR14500_SoC_100_27-03-2023_11-21.csv
Frequency(Hz),R(ohm),X(ohm),V(V),T(deg C),Range(Ohm)
0.01,0.323575,-0.617116,3.4954,20,3.0
0.02,0.21629,-0.378494,3.49189,20,3.0
0.03,0.173578,-0.284778,3.49253,20,3.0
0.05,0.135756,-0.201537,3.49278,20,0.3
0.08,0.11248,-0.13858,3.49363,20,0.3
0.1,0.10438,-0.116506,3.49442,20,0.3
0.2,0.0872987,-0.0669657,3.4953,20,0.3
0.3,0.0811002,-0.0487222,3.49593,20,0.3
0.5,0.075631,-0.0329389,3.49645,20,0.3
0.8,0.0720556,-0.0233359,3.49684,20,0.3
1.0,0.0706733,-0.0199686,3.49714,20,0.3
2.0,0.0672557,-0.0127956,3.49734,20,0.3
3.0,0.0656682,-0.0101908,3.49751,20,0.3
5.0,0.0639794,-0.0080882,3.49761,20,0.3
8.0,0.0625935,-0.00693536,3.49769,20,0.3
10.0,0.0619431,-0.00662289,3.49772,20,0.3
11.0,0.0616722,-0.00654459,3.49777,20,0.3
21.0,0.0595772,-0.00640415,3.49782,20,0.3
31.0,0.0581199,-0.00649771,3.49783,20,0.3
61.0,0.0551749,-0.00675933,3.49785,20,0.3
81.0,0.0538522,-0.00677356,3.49785,20,0.3
100.0,0.0528647,-0.00679279,3.49783,20,0.3
110.0,0.0523782,-0.00674408,3.49782,20,0.3
210.0,0.0491963,-0.00634197,3.49781,20,0.3
310.0,0.04731,-0.00575021,3.4978,20,0.3
510.0,0.0449936,-0.00456025,3.4978,20,0.3
810.0,0.0429906,-0.00286995,3.4978,20,0.3
1000.0,0.0421596,-0.00185841,3.49779,20,0.3