Folder: virtualizacija-procesa/Baterija/SoC Estimation on Li-ion Batteries A New EIS-based Dataset for data-driven applications/B04/EIS measurements/Test_2/Hioki

File: Hk_IFR14500_SoC_5_10-06-2023_06-05.csv
Frequency(Hz),R(ohm),X(ohm),V(V),T(deg C),Range(Ohm)
0.01,0.170303,-0.104054,3.08233,20,0.3
0.02,0.142147,-0.0718637,3.09081,20,0.3
0.03,0.130003,-0.0573789,3.09255,20,0.3
0.05,0.118416,-0.0434844,3.09392,20,0.3
0.08,0.110151,-0.0341932,3.09466,20,0.3
0.1,0.106775,-0.0306457,3.09515,20,0.3
0.2,0.0980586,-0.0223601,3.09558,20,0.3
0.3,0.0939196,-0.0188732,3.09573,20,0.3
0.5,0.0894586,-0.0155211,3.09588,20,0.3
0.8,0.0859325,-0.0132087,3.096,20,0.3
1.0,0.0843999,-0.0123193,3.09611,20,0.3
2.0,0.080086,-0.0101208,3.09616,20,0.3
3.0,0.0778394,-0.00910185,3.09624,20,0.3
5.0,0.0753238,-0.00800042,3.09628,20,0.3
8.0,0.0733095,-0.00713298,3.09633,20,0.3
10.0,0.0724427,-0.00684146,3.09636,20,0.3
11.0,0.0720966,-0.00671772,3.09637,20,0.3
21.0,0.0697713,-0.00629233,3.09639,20,0.3
31.0,0.0683599,-0.00622058,3.0964,20,0.3
61.0,0.065675,-0.00620811,3.0964,20,0.3
81.0,0.0645083,-0.00615903,3.0964,20,0.3
100.0,0.063606,-0.00614058,3.0964,20,0.3
110.0,0.0632121,-0.00607625,3.0964,20,0.3
210.0,0.060482,-0.00574875,3.0964,20,0.3
310.0,0.0588791,-0.00528775,3.09639,20,0.3
510.0,0.0568387,-0.00449413,3.09641,20,0.3
810.0,0.0550073,-0.0033214,3.09642,20,0.3
1000.0,0.0541986,-0.00259758,3.09642,20,0.3

File: Hk_IFR14500_SoC_10_10-06-2023_05-04.csv
Frequency(Hz),R(ohm),X(ohm),V(V),T(deg C),Range(Ohm)
0.01,0.161023,-0.0765272,3.19405,20,0.3
0.02,0.134656,-0.0565087,3.19812,20,0.3
0.03,0.123568,-0.0462691,3.19827,20,0.3
0.05,0.11304,-0.0359241,3.19862,20,0.3
0.08,0.105582,-0.0287743,3.19878,20,0.3
0.1,0.102538,-0.0260086,3.19891,20,0.3
0.2,0.0946634,-0.0193546,3.19906,20,0.3
0.3,0.0909215,-0.016463,3.19905,20,0.3
0.5,0.0869111,-0.0136415,3.19912,20,0.3
0.8,0.0837633,-0.0116959,3.19918,20,0.3
1.0,0.0823895,-0.0109356,3.19924,20,0.3
2.0,0.0785258,-0.0091082,3.19928,20,0.3
3.0,0.0764736,-0.00825039,3.19933,20,0.3
5.0,0.0741175,-0.00731923,3.19937,20,0.3
8.0,0.072262,-0.00660458,3.19937,20,0.3
10.0,0.0714348,-0.0063553,3.19939,20,0.3
11.0,0.0711194,-0.00623384,3.1994,20,0.3
21.0,0.0689303,-0.0058742,3.19941,20,0.3
31.0,0.0675925,-0.00585112,3.19943,20,0.3
61.0,0.0650917,-0.00592437,3.19943,20,0.3
81.0,0.0639877,-0.0059337,3.19943,20,0.3
100.0,0.0631409,-0.00588515,3.19943,20,0.3
110.0,0.0627193,-0.00590132,3.19942,20,0.3
210.0,0.0600493,-0.00563085,3.19943,20,0.3
310.0,0.0584231,-0.00525819,3.19943,20,0.3
510.0,0.0563892,-0.00446947,3.19943,20,0.3
810.0,0.0545444,-0.00327936,3.19943,20,0.3
1000.0,0.0537549,-0.0025595,3.19943,20,0.3

File: Hk_IFR14500_SoC_15_10-06-2023_04-16.csv
Frequency(Hz),R(ohm),X(ohm),V(V),T(deg C),Range(Ohm)
0.01,0.157114,-0.0693095,3.19953,20,0.3
0.02,0.13197,-0.0525438,3.20336,20,0.3
0.03,0.12132,-0.0434509,3.20347,20,0.3
0.05,0.111199,-0.0339665,3.20382,20,0.3
0.08,0.104036,-0.0273133,3.20399,20,0.3
0.1,0.101121,-0.0247215,3.20412,20,0.3
0.2,0.0935565,-0.0184412,3.20427,20,0.3
0.3,0.0899693,-0.0157001,3.20427,20,0.3
0.5,0.0861391,-0.0130223,3.20436,20,0.3
0.8,0.0831253,-0.0111479,3.20441,20,0.3
1.0,0.0818293,-0.0104282,3.20445,20,0.3
2.0,0.0781505,-0.00872099,3.20451,20,0.3
3.0,0.0761798,-0.00792222,3.20456,20,0.3
5.0,0.0739315,-0.0070794,3.20458,20,0.3
8.0,0.0720999,-0.00647187,3.20461,20,0.3
10.0,0.0713232,-0.00626238,3.20462,20,0.3
11.0,0.0709704,-0.00615135,3.20462,20,0.3
21.0,0.0688177,-0.00587771,3.20465,20,0.3
31.0,0.0674784,-0.00581733,3.20465,20,0.3
61.0,0.0649453,-0.00592565,3.20465,20,0.3
81.0,0.0638385,-0.00593803,3.20465,20,0.3
100.0,0.0629855,-0.00594037,3.20465,20,0.3
110.0,0.0626014,-0.00589359,3.20466,20,0.3
210.0,0.0599152,-0.00562361,3.20464,20,0.3
310.0,0.0582944,-0.00526965,3.20466,20,0.3
510.0,0.0562029,-0.00448076,3.20465,20,0.3
810.0,0.0543662,-0.003284,3.20466,20,0.3
1000.0,0.0535478,-0.00255509,3.20464,20,0.3

File: Hk_IFR14500_SoC_20_10-06-2023_03-16.csv
Frequency(Hz),R(ohm),X(ohm),V(V),T(deg C),Range(Ohm)
0.01,0.153216,-0.0679907,3.22757,20,0.3
0.02,0.128754,-0.051195,3.23137,20,0.3
0.03,0.118443,-0.0421381,3.23151,20,0.3
0.05,0.108738,-0.0327562,3.23182,20,0.3
0.08,0.101909,-0.0262083,3.23201,20,0.3
0.1,0.0991441,-0.0236746,3.23214,20,0.3
0.2,0.0919926,-0.0175484,3.23227,20,0.3
0.3,0.0886221,-0.0148914,3.23229,20,0.3
0.5,0.0850328,-0.012281,3.23236,20,0.3
0.8,0.082227,-0.0104869,3.23241,20,0.3
1.0,0.0810152,-0.00980817,3.23248,20,0.3
2.0,0.0775967,-0.00820331,3.23251,20,0.3
3.0,0.0757772,-0.00751669,3.23255,20,0.3
5.0,0.0736172,-0.00676763,3.23258,20,0.3
8.0,0.0718836,-0.00629813,3.23261,20,0.3
10.0,0.0710756,-0.00606529,3.23262,20,0.3
11.0,0.0707589,-0.00598246,3.23263,20,0.3
21.0,0.0686196,-0.00576049,3.23264,20,0.3
31.0,0.0672589,-0.00580049,3.23265,20,0.3
61.0,0.0647938,-0.00589061,3.23265,20,0.3
81.0,0.0636921,-0.0059183,3.23265,20,0.3
100.0,0.0628245,-0.00591602,3.23265,20,0.3
110.0,0.0624321,-0.00590572,3.23266,20,0.3
210.0,0.059758,-0.00564339,3.23264,20,0.3
310.0,0.0580854,-0.00530222,3.23264,20,0.3
510.0,0.0559903,-0.00450662,3.23265,20,0.3
810.0,0.054132,-0.00330128,3.23264,20,0.3
1000.0,0.0533185,-0.0025879,3.23264,20,0.3

File: Hk_IFR14500_SoC_25_10-06-2023_02-27.csv
Frequency(Hz),R(ohm),X(ohm),V(V),T(deg C),Range(Ohm)
0.01,0.150027,-0.0646316,3.24711,20,0.3
0.02,0.126283,-0.0490501,3.25066,20,0.3
0.03,0.116301,-0.0404412,3.25071,20,0.3
0.05,0.106933,-0.0314352,3.25102,20,0.3
0.08,0.100379,-0.0251343,3.25117,20,0.3
0.1,0.0977279,-0.0226929,3.25126,20,0.3
0.2,0.0908928,-0.0167844,3.25141,20,0.3
0.3,0.0876807,-0.0142199,3.25143,20,0.3
0.5,0.0842657,-0.0116987,3.25151,20,0.3
0.8,0.0816162,-0.00998807,3.25154,20,0.3
1.0,0.0804798,-0.00933361,3.25157,20,0.3
2.0,0.0772545,-0.00782061,3.25163,20,0.3
3.0,0.0755151,-0.00717785,3.25167,20,0.3
5.0,0.0734724,-0.00655325,3.2517,20,0.3
8.0,0.0717424,-0.00611191,3.25173,20,0.3
10.0,0.0709881,-0.00591691,3.25174,20,0.3
11.0,0.070681,-0.00585547,3.25173,20,0.3
21.0,0.0685357,-0.00566862,3.25176,20,0.3
31.0,0.0672307,-0.00573786,3.25178,20,0.3
61.0,0.0647039,-0.00588135,3.25176,20,0.3
81.0,0.0635823,-0.00592313,3.25176,20,0.3
100.0,0.0627326,-0.00594409,3.25177,20,0.3
110.0,0.0623422,-0.00593312,3.25176,20,0.3
210.0,0.0596436,-0.00568782,3.25176,20,0.3
310.0,0.0579726,-0.00532547,3.25176,20,0.3
510.0,0.055846,-0.00454646,3.25177,20,0.3
810.0,0.0539798,-0.00333524,3.25176,20,0.3
1000.0,0.0531612,-0.00259286,3.25177,20,0.3

File: Hk_IFR14500_SoC_30_10-06-2023_01-27.csv
Frequency(Hz),R(ohm),X(ohm),V(V),T(deg C),Range(Ohm)
0.01,0.146851,-0.0619953,3.26307,20,0.3
0.02,0.123701,-0.0471074,3.26659,20,0.3
0.03,0.114037,-0.0387943,3.26668,20,0.3
0.05,0.105034,-0.0300918,3.26698,20,0.3
0.08,0.0987663,-0.0240149,3.26713,20,0.3
0.1,0.0962454,-0.0216702,3.26725,20,0.3
0.2,0.0897373,-0.0159857,3.26736,20,0.3
0.3,0.086685,-0.013527,3.26737,20,0.3
0.5,0.0834618,-0.011104,3.26744,20,0.3
0.8,0.0809524,-0.00944918,3.26748,20,0.3
1.0,0.0798779,-0.00882479,3.26753,20,0.3
2.0,0.0768554,-0.00740256,3.26757,20,0.3
3.0,0.0752247,-0.00683962,3.26762,20,0.3
5.0,0.0732868,-0.00630167,3.26764,20,0.3
8.0,0.071636,-0.00591939,3.26766,20,0.3
10.0,0.0708628,-0.00577729,3.26767,20,0.3
11.0,0.0705599,-0.00572482,3.26768,20,0.3
21.0,0.0684521,-0.00564781,3.26769,20,0.3
31.0,0.0671445,-0.0056699,3.26769,20,0.3
61.0,0.0646206,-0.00586733,3.2677,20,0.3
81.0,0.0635091,-0.00592914,3.2677,20,0.3
100.0,0.062653,-0.00591762,3.26771,20,0.3
110.0,0.062247,-0.00593439,3.26769,20,0.3
210.0,0.0595118,-0.00571552,3.26769,20,0.3
310.0,0.0578423,-0.0053689,3.2677,20,0.3
510.0,0.0557261,-0.00458966,3.2677,20,0.3
810.0,0.0538219,-0.00336293,3.26769,20,0.3
1000.0,0.0529785,-0.00262445,3.26769,20,0.3

File: Hk_IFR14500_SoC_35_10-06-2023_00-39.csv
Frequency(Hz),R(ohm),X(ohm),V(V),T(deg C),Range(Ohm)
0.01,0.144301,-0.0597064,3.27595,20,0.3
0.02,0.121599,-0.0455355,3.27975,20,0.3
0.03,0.112203,-0.0375035,3.27997,20,0.3
0.05,0.103491,-0.0290575,3.28035,20,0.3
0.08,0.0974531,-0.0231533,3.28051,20,0.3
0.1,0.0950298,-0.0208745,3.28065,20,0.3
0.2,0.0887829,-0.0153655,3.28078,20,0.3
0.3,0.0858591,-0.0129723,3.28082,20,0.3
0.5,0.082776,-0.0106311,3.28089,20,0.3
0.8,0.0803974,-0.00904773,3.28093,20,0.3
1.0,0.0793763,-0.0084378,3.28099,20,0.3
2.0,0.0764953,-0.00708178,3.28102,20,0.3
3.0,0.0749547,-0.00656419,3.28105,20,0.3
5.0,0.0731051,-0.00608929,3.28108,20,0.3
8.0,0.071484,-0.00574627,3.28112,20,0.3
10.0,0.0707612,-0.00562789,3.28112,20,0.3
11.0,0.0704562,-0.00561312,3.28113,20,0.3
21.0,0.0683772,-0.00552088,3.28113,20,0.3
31.0,0.0670777,-0.00562561,3.28116,20,0.3
61.0,0.0645936,-0.00583989,3.28116,20,0.3
81.0,0.063466,-0.00588967,3.28116,20,0.3
100.0,0.0625939,-0.00590121,3.28115,20,0.3
110.0,0.0622075,-0.00592106,3.28116,20,0.3
210.0,0.0594788,-0.00572906,3.28115,20,0.3
310.0,0.0578038,-0.0053889,3.28116,20,0.3
510.0,0.0556613,-0.00459469,3.28115,20,0.3
810.0,0.0537312,-0.00340691,3.28115,20,0.3
1000.0,0.052907,-0.00264001,3.28113,20,0.3

File: Hk_IFR14500_SoC_40_09-06-2023_23-38.csv
Frequency(Hz),R(ohm),X(ohm),V(V),T(deg C),Range(Ohm)
0.01,0.141728,-0.0581633,3.28253,20,0.3
0.02,0.119429,-0.0443032,3.28577,20,0.3
0.03,0.110294,-0.03641,3.28585,20,0.3
0.05,0.101875,-0.0281061,3.28612,20,0.3
0.08,0.0960831,-0.02233,3.28623,20,0.3
0.1,0.0937703,-0.0201133,3.28635,20,0.3
0.2,0.0878014,-0.0147467,3.28646,20,0.3
0.3,0.0850141,-0.0124265,3.28649,20,0.3
0.5,0.0820709,-0.010157,3.28653,20,0.3
0.8,0.0798168,-0.00860736,3.28659,20,0.3
1.0,0.0788478,-0.00803519,3.28663,20,0.3
2.0,0.0761365,-0.00674285,3.28665,20,0.3
3.0,0.0746748,-0.00626428,3.2867,20,0.3
5.0,0.0729138,-0.00582819,3.28673,20,0.3
8.0,0.0713782,-0.00555839,3.28675,20,0.3
10.0,0.0706583,-0.00545819,3.28677,20,0.3
11.0,0.0703577,-0.00544814,3.28676,20,0.3
21.0,0.0683283,-0.00540066,3.28677,20,0.3
31.0,0.0670166,-0.00557502,3.28678,20,0.3
61.0,0.0645742,-0.00579206,3.28679,20,0.3
81.0,0.0634427,-0.00583863,3.28678,20,0.3
100.0,0.0625952,-0.00586132,3.28679,20,0.3
110.0,0.0622193,-0.00587571,3.28677,20,0.3
210.0,0.0594965,-0.00569813,3.28677,20,0.3
310.0,0.0578294,-0.00538045,3.28677,20,0.3
510.0,0.0556741,-0.00460719,3.28678,20,0.3
810.0,0.05375,-0.0033966,3.28677,20,0.3
1000.0,0.0529111,-0.00264558,3.28679,20,0.3

File: Hk_IFR14500_SoC_45_09-06-2023_22-50.csv
Frequency(Hz),R(ohm),X(ohm),V(V),T(deg C),Range(Ohm)
0.01,0.139771,-0.0564371,3.28385,20,0.3
0.02,0.117781,-0.0431729,3.28674,20,0.3
0.03,0.108823,-0.0354668,3.28672,20,0.3
0.05,0.100634,-0.0273372,3.28694,20,0.3
0.08,0.0950347,-0.0216828,3.28706,20,0.3
0.1,0.0927952,-0.0195091,3.28717,20,0.3
0.2,0.0870357,-0.0142668,3.28727,20,0.3
0.3,0.0843646,-0.0120014,3.28729,20,0.3
0.5,0.0815314,-0.00978639,3.28734,20,0.3
0.8,0.0793661,-0.00828524,3.28739,20,0.3
1.0,0.0784431,-0.00773029,3.28743,20,0.3
2.0,0.0758644,-0.00649089,3.28747,20,0.3
3.0,0.0744741,-0.00603352,3.2875,20,0.3
5.0,0.0727678,-0.00564117,3.28753,20,0.3
8.0,0.0712731,-0.00540896,3.28754,20,0.3
10.0,0.0705738,-0.00531485,3.28756,20,0.3
11.0,0.0702928,-0.00531665,3.28757,20,0.3
21.0,0.0682851,-0.00533014,3.28757,20,0.3
31.0,0.0670164,-0.00547774,3.28758,20,0.3
61.0,0.0645595,-0.00570099,3.28759,20,0.3
81.0,0.0634607,-0.00579806,3.28759,20,0.3
100.0,0.0626105,-0.00581521,3.28756,20,0.3
110.0,0.0622253,-0.00583297,3.28758,20,0.3
210.0,0.0595114,-0.00567525,3.28759,20,0.3
310.0,0.0578124,-0.00536279,3.28758,20,0.3
510.0,0.0557091,-0.00460285,3.28758,20,0.3
810.0,0.0537831,-0.00340175,3.28757,20,0.3
1000.0,0.0529459,-0.00266144,3.28757,20,0.3

File: Hk_IFR14500_SoC_50_09-06-2023_21-49.csv
Frequency(Hz),R(ohm),X(ohm),V(V),T(deg C),Range(Ohm)
0.01,0.137632,-0.0550876,3.285,20,0.3
0.02,0.116001,-0.0421759,3.28774,20,0.3
0.03,0.107255,-0.0345852,3.28767,20,0.3
0.05,0.0993057,-0.0265776,3.28789,20,0.3
0.08,0.0938889,-0.0210211,3.288,20,0.3
0.1,0.0917348,-0.0188979,3.28809,20,0.3
0.2,0.0861929,-0.0137707,3.28819,20,0.3
0.3,0.0836209,-0.0115634,3.28821,20,0.3
0.5,0.080923,-0.00940855,3.28826,20,0.3
0.8,0.0788562,-0.00795492,3.28831,20,0.3
1.0,0.0779649,-0.00739325,3.28834,20,0.3
2.0,0.0755209,-0.00621741,3.28837,20,0.3
3.0,0.0741868,-0.00576936,3.28841,20,0.3
5.0,0.0725872,-0.00542278,3.28842,20,0.3
8.0,0.0711578,-0.00526435,3.28844,20,0.3
10.0,0.0704827,-0.00519117,3.28845,20,0.3
11.0,0.0702072,-0.00517547,3.28847,20,0.3
21.0,0.0682332,-0.00520896,3.28848,20,0.3
31.0,0.0669745,-0.00535426,3.28849,20,0.3
61.0,0.0645549,-0.00567186,3.28848,20,0.3
81.0,0.0634713,-0.00571841,3.28848,20,0.3
100.0,0.0626178,-0.0057978,3.28848,20,0.3
110.0,0.0622247,-0.00577918,3.28847,20,0.3
210.0,0.0595523,-0.00567172,3.28847,20,0.3
310.0,0.057852,-0.00534411,3.28847,20,0.3
510.0,0.0557385,-0.00459261,3.28847,20,0.3
810.0,0.0538198,-0.00339519,3.28848,20,0.3
1000.0,0.0529684,-0.00264772,3.28847,20,0.3

File: Hk_IFR14500_SoC_55_09-06-2023_21-01.csv
Frequency(Hz),R(ohm),X(ohm),V(V),T(deg C),Range(Ohm)
0.01,0.135809,-0.0541042,3.28591,20,0.3
0.02,0.114521,-0.0414345,3.28857,20,0.3
0.03,0.105959,-0.033946,3.28853,20,0.3
0.05,0.0982055,-0.0260102,3.28875,20,0.3
0.08,0.09296,-0.0205232,3.28888,20,0.3
0.1,0.0908809,-0.0184296,3.28896,20,0.3
0.2,0.0855261,-0.013387,3.28907,20,0.3
0.3,0.0830427,-0.0112267,3.28908,20,0.3
0.5,0.0804285,-0.00911511,3.28915,20,0.3
0.8,0.078436,-0.00767829,3.28919,20,0.3
1.0,0.0775968,-0.00714538,3.28922,20,0.3
2.0,0.0752314,-0.00596874,3.28925,20,0.3
3.0,0.0739739,-0.0055618,3.2893,20,0.3
5.0,0.0724359,-0.00524739,3.28931,20,0.3
8.0,0.0710517,-0.00509259,3.28933,20,0.3
10.0,0.0703721,-0.00503782,3.28934,20,0.3
11.0,0.0701101,-0.0050416,3.28935,20,0.3
21.0,0.0681977,-0.00515237,3.28936,20,0.3
31.0,0.0669636,-0.00529658,3.28937,20,0.3
61.0,0.064549,-0.0056098,3.28937,20,0.3
81.0,0.0634442,-0.00569529,3.28937,20,0.3
100.0,0.0626342,-0.00575842,3.28935,20,0.3
110.0,0.0622739,-0.00575648,3.28937,20,0.3
210.0,0.0595627,-0.0056106,3.28935,20,0.3
310.0,0.0578943,-0.00532218,3.28937,20,0.3
510.0,0.0557647,-0.00457323,3.28935,20,0.3
810.0,0.0538563,-0.00340151,3.28936,20,0.3
1000.0,0.0529998,-0.002648,3.28936,20,0.3

File: Hk_IFR14500_SoC_60_09-06-2023_20-01.csv
Frequency(Hz),R(ohm),X(ohm),V(V),T(deg C),Range(Ohm)
0.01,0.134182,-0.055113,3.28857,20,0.3
0.02,0.113042,-0.0416774,3.29122,20,0.3
0.03,0.104623,-0.0339062,3.29124,20,0.3
0.05,0.0970604,-0.0257995,3.29147,20,0.3
0.08,0.0919724,-0.0202398,3.29161,20,0.3
0.1,0.0899524,-0.0181253,3.29173,20,0.3
0.2,0.0847864,-0.0130878,3.29183,20,0.3
0.3,0.0823884,-0.0109455,3.29186,20,0.3
0.5,0.0798665,-0.00884957,3.29192,20,0.3
0.8,0.0779643,-0.00744012,3.29197,20,0.3
1.0,0.0771479,-0.00690913,3.292,20,0.3
2.0,0.0748983,-0.00576109,3.29204,20,0.3
3.0,0.0737022,-0.00536952,3.29207,20,0.3
5.0,0.0722154,-0.00504933,3.2921,20,0.3
8.0,0.0708745,-0.00490186,3.29212,20,0.3
10.0,0.0702441,-0.00491168,3.29212,20,0.3
11.0,0.0699631,-0.00489245,3.29213,20,0.3
21.0,0.0680822,-0.0050313,3.29215,20,0.3
31.0,0.0668746,-0.00520896,3.29214,20,0.3
61.0,0.0645255,-0.00554206,3.29215,20,0.3
81.0,0.0634285,-0.00564299,3.29214,20,0.3
100.0,0.0626026,-0.00568074,3.29214,20,0.3
110.0,0.0622447,-0.00569917,3.29214,20,0.3
210.0,0.0595548,-0.00560243,3.29214,20,0.3
310.0,0.0579135,-0.00528449,3.29215,20,0.3
510.0,0.0557819,-0.00455832,3.29215,20,0.3
810.0,0.0538537,-0.00339396,3.29214,20,0.3
1000.0,0.0530148,-0.00265404,3.29213,20,0.3

File: Hk_IFR14500_SoC_65_09-06-2023_19-13.csv
Frequency(Hz),R(ohm),X(ohm),V(V),T(deg C),Range(Ohm)
0.01,0.133518,-0.0588646,3.2954,20,0.3
0.02,0.112107,-0.0436765,3.299,20,0.3
0.03,0.1037,-0.0352293,3.29949,20,0.3
0.05,0.0961731,-0.0265295,3.3,20,0.3
0.08,0.0911361,-0.0206202,3.30031,20,0.3
0.1,0.0891621,-0.018392,3.30052,20,0.3
0.2,0.0840801,-0.0131298,3.30069,20,0.3
0.3,0.0817313,-0.0109122,3.30075,20,0.3
0.5,0.0792779,-0.00875746,3.30083,20,0.3
0.8,0.0774225,-0.0073182,3.3009,20,0.3
1.0,0.0766411,-0.00678541,3.30096,20,0.3
2.0,0.0744541,-0.00561051,3.301,20,0.3
3.0,0.0732951,-0.00521664,3.30103,20,0.3
5.0,0.0718673,-0.00491155,3.30105,20,0.3
8.0,0.0705879,-0.00479243,3.30107,20,0.3
10.0,0.0699908,-0.00481342,3.30108,20,0.3
11.0,0.0697136,-0.00479862,3.30111,20,0.3
21.0,0.0678683,-0.00494902,3.3011,20,0.3
31.0,0.0666827,-0.00512181,3.30111,20,0.3
61.0,0.0643461,-0.005453,3.30111,20,0.3
81.0,0.0632982,-0.00554314,3.30111,20,0.3
100.0,0.0624892,-0.00559729,3.3011,20,0.3
110.0,0.0620891,-0.00561684,3.3011,20,0.3
210.0,0.0594724,-0.00548896,3.30111,20,0.3
310.0,0.0578193,-0.00524903,3.30112,20,0.3
510.0,0.055708,-0.00452687,3.30111,20,0.3
810.0,0.0538081,-0.00336364,3.30112,20,0.3
1000.0,0.0529777,-0.0026259,3.30111,20,0.3

File: Hk_IFR14500_SoC_70_09-06-2023_18-12.csv
Frequency(Hz),R(ohm),X(ohm),V(V),T(deg C),Range(Ohm)
0.01,0.133581,-0.0627411,3.31496,20,0.3
0.02,0.111451,-0.0452889,3.32008,20,0.3
0.03,0.102864,-0.0361467,3.32094,20,0.3
0.05,0.0952676,-0.0269979,3.32164,20,0.3
0.08,0.0902206,-0.0208606,3.32202,20,0.3
0.1,0.0882334,-0.0185592,3.32229,20,0.3
0.2,0.0831773,-0.0131567,3.3225,20,0.3
0.3,0.0808503,-0.0108854,3.32258,20,0.3
0.5,0.0784321,-0.00870394,3.32268,20,0.3
0.8,0.0765925,-0.00723042,3.32276,20,0.3
1.0,0.0758272,-0.00668433,3.32281,20,0.3
2.0,0.0737039,-0.00548962,3.32286,20,0.3
3.0,0.0725822,-0.00505608,3.32289,20,0.3
5.0,0.0712223,-0.00476126,3.32293,20,0.3
8.0,0.0699887,-0.00464845,3.32292,20,0.3
10.0,0.0694052,-0.00462105,3.32295,20,0.3
11.0,0.0691359,-0.00464401,3.32295,20,0.3
21.0,0.0673661,-0.00476884,3.32297,20,0.3
31.0,0.0662086,-0.00494557,3.32298,20,0.3
61.0,0.063952,-0.00528037,3.32298,20,0.3
81.0,0.0629113,-0.00540305,3.32298,20,0.3
100.0,0.0621313,-0.00542749,3.32297,20,0.3
110.0,0.0617794,-0.00545759,3.32298,20,0.3
210.0,0.0592102,-0.00538661,3.32298,20,0.3
310.0,0.0576024,-0.00512889,3.32297,20,0.3
510.0,0.0555071,-0.0044286,3.32298,20,0.3
810.0,0.0536368,-0.00328564,3.32297,20,0.3
1000.0,0.0527828,-0.00254899,3.32297,20,0.3

File: Hk_IFR14500_SoC_75_09-06-2023_17-24.csv
Frequency(Hz),R(ohm),X(ohm),V(V),T(deg C),Range(Ohm)
0.01,0.131697,-0.0587014,3.32174,20,0.3
0.02,0.109976,-0.04298,3.3249,20,0.3
0.03,0.101607,-0.0344553,3.32512,20,0.3
0.05,0.0942556,-0.0257991,3.32546,20,0.3
0.08,0.089389,-0.0199653,3.32567,20,0.3
0.1,0.0874837,-0.0177802,3.32582,20,0.3
0.2,0.0826152,-0.0126258,3.32595,20,0.3
0.3,0.0803727,-0.0104636,3.326,20,0.3
0.5,0.0780307,-0.0083773,3.32607,20,0.3
0.8,0.0762622,-0.00696677,3.32612,20,0.3
1.0,0.0755139,-0.0064374,3.32615,20,0.3
2.0,0.0734741,-0.00528274,3.32619,20,0.3
3.0,0.0724006,-0.00490959,3.32622,20,0.3
5.0,0.0710832,-0.00465371,3.32624,20,0.3
8.0,0.0698705,-0.00452248,3.32628,20,0.3
10.0,0.0693162,-0.00453662,3.32628,20,0.3
11.0,0.0690597,-0.00451912,3.32627,20,0.3
21.0,0.0673118,-0.00471978,3.32628,20,0.3
31.0,0.0661667,-0.0049388,3.3263,20,0.3
61.0,0.0639178,-0.00526227,3.32629,20,0.3
81.0,0.0628957,-0.00537724,3.32629,20,0.3
100.0,0.0620922,-0.00544945,3.32629,20,0.3
110.0,0.0617223,-0.00546659,3.32629,20,0.3
210.0,0.0591796,-0.00537892,3.32629,20,0.3
310.0,0.0575358,-0.00514155,3.32629,20,0.3
510.0,0.0554333,-0.00444421,3.32629,20,0.3
810.0,0.0535429,-0.00329204,3.3263,20,0.3
1000.0,0.0527089,-0.00257126,3.32629,20,0.3

File: Hk_IFR14500_SoC_80_09-06-2023_16-23.csv
Frequency(Hz),R(ohm),X(ohm),V(V),T(deg C),Range(Ohm)
0.01,0.129694,-0.0562264,3.32338,20,0.3
0.02,0.108399,-0.0413802,3.32589,20,0.3
0.03,0.100268,-0.0331704,3.32593,20,0.3
0.05,0.0931725,-0.0248309,3.32618,20,0.3
0.08,0.0885005,-0.0191896,3.32634,20,0.3
0.1,0.0866852,-0.0170881,3.32646,20,0.3
0.2,0.0820227,-0.0121215,3.32659,20,0.3
0.3,0.0798757,-0.0100386,3.32662,20,0.3
0.5,0.0776333,-0.00804326,3.32667,20,0.3
0.8,0.0759396,-0.00668778,3.32671,20,0.3
1.0,0.0752257,-0.00619262,3.32675,20,0.3
2.0,0.0732677,-0.00509296,3.3268,20,0.3
3.0,0.0722301,-0.00471944,3.32682,20,0.3
5.0,0.0709677,-0.00447385,3.32684,20,0.3
8.0,0.0698004,-0.00440107,3.32686,20,0.3
10.0,0.0692397,-0.00440199,3.32686,20,0.3
11.0,0.0689931,-0.00443231,3.32688,20,0.3
21.0,0.0672994,-0.00468447,3.32688,20,0.3
31.0,0.0661479,-0.00485741,3.32688,20,0.3
61.0,0.0639071,-0.00527039,3.32687,20,0.3
81.0,0.0628745,-0.00539481,3.32689,20,0.3
100.0,0.0620678,-0.00544245,3.32687,20,0.3
110.0,0.0617219,-0.0054766,3.32689,20,0.3
210.0,0.0591079,-0.00542419,3.32689,20,0.3
310.0,0.0574775,-0.00518958,3.32688,20,0.3
510.0,0.0553665,-0.00448866,3.32689,20,0.3
810.0,0.0534429,-0.00333867,3.32687,20,0.3
1000.0,0.0526173,-0.00258065,3.32689,20,0.3

File: Hk_IFR14500_SoC_85_09-06-2023_15-35.csv
Frequency(Hz),R(ohm),X(ohm),V(V),T(deg C),Range(Ohm)
0.01,0.127851,-0.0539658,3.32363,20,0.3
0.02,0.107023,-0.0399472,3.32595,20,0.3
0.03,0.0991075,-0.0320394,3.32598,20,0.3
0.05,0.0922321,-0.0239506,3.3262,20,0.3
0.08,0.0877413,-0.0184933,3.32637,20,0.3
0.1,0.0859886,-0.0164522,3.32648,20,0.3
0.2,0.0815164,-0.0116532,3.3266,20,0.3
0.3,0.0794533,-0.00964581,3.32664,20,0.3
0.5,0.0773138,-0.00772766,3.32671,20,0.3
0.8,0.0756869,-0.00643112,3.32674,20,0.3
1.0,0.0750043,-0.00594434,3.32678,20,0.3
2.0,0.073119,-0.00490909,3.32681,20,0.3
3.0,0.0721415,-0.00458216,3.32682,20,0.3
5.0,0.0709155,-0.00434143,3.32687,20,0.3
8.0,0.0697872,-0.00429323,3.32688,20,0.3
10.0,0.0692394,-0.0043342,3.32688,20,0.3
11.0,0.069001,-0.00433904,3.32691,20,0.3
21.0,0.067299,-0.00461401,3.3269,20,0.3
31.0,0.0661955,-0.0048536,3.3269,20,0.3
61.0,0.0639209,-0.00530608,3.32692,20,0.3
81.0,0.062901,-0.00542286,3.32692,20,0.3
100.0,0.0620978,-0.00550121,3.3269,20,0.3
110.0,0.061706,-0.00548844,3.3269,20,0.3
210.0,0.0590899,-0.00547636,3.32691,20,0.3
310.0,0.0574549,-0.00523141,3.32691,20,0.3
510.0,0.0553118,-0.00454418,3.32691,20,0.3
810.0,0.0533838,-0.00336399,3.3269,20,0.3
1000.0,0.052533,-0.00260967,3.32691,20,0.3

File: Hk_IFR14500_SoC_90_09-06-2023_14-35.csv
Frequency(Hz),R(ohm),X(ohm),V(V),T(deg C),Range(Ohm)
0.01,0.125376,-0.0517048,3.32381,20,0.3
0.02,0.105262,-0.0383824,3.326,20,0.3
0.03,0.0976704,-0.0307706,3.32601,20,0.3
0.05,0.0911241,-0.0229319,3.32626,20,0.3
0.08,0.0868689,-0.0176553,3.32641,20,0.3
0.1,0.0852132,-0.0156993,3.32653,20,0.3
0.2,0.0810099,-0.0110803,3.32663,20,0.3
0.3,0.0790736,-0.00916699,3.32669,20,0.3
0.5,0.0770521,-0.00733088,3.32674,20,0.3
0.8,0.0755154,-0.00612153,3.32678,20,0.3
1.0,0.0748658,-0.00566693,3.32682,20,0.3
2.0,0.0730796,-0.00468743,3.32686,20,0.3
3.0,0.0721211,-0.00435992,3.32688,20,0.3
5.0,0.0709613,-0.00419417,3.32689,20,0.3
8.0,0.0698734,-0.00419489,3.32692,20,0.3
10.0,0.0693589,-0.00424946,3.32693,20,0.3
11.0,0.0691235,-0.00425863,3.32694,20,0.3
21.0,0.0674434,-0.00459323,3.32694,20,0.3
31.0,0.0663277,-0.00485311,3.32694,20,0.3
61.0,0.0640318,-0.00532663,3.32696,20,0.3
81.0,0.0629794,-0.00547915,3.32695,20,0.3
100.0,0.0621438,-0.00554526,3.32694,20,0.3
110.0,0.0618027,-0.00558113,3.32695,20,0.3
210.0,0.0591437,-0.00556314,3.32694,20,0.3
310.0,0.0574568,-0.00532331,3.32694,20,0.3
510.0,0.0552865,-0.00461234,3.32694,20,0.3
810.0,0.0533113,-0.00344135,3.32694,20,0.3
1000.0,0.0524486,-0.00267483,3.32694,20,0.3

File: Hk_IFR14500_SoC_95_09-06-2023_13-47.csv
Frequency(Hz),R(ohm),X(ohm),V(V),T(deg C),Range(Ohm)
0.01,0.122665,-0.0510404,3.32423,20,0.3
0.02,0.103239,-0.0375724,3.3263,20,0.3
0.03,0.0959904,-0.0299713,3.32634,20,0.3
0.05,0.0897932,-0.0221953,3.32661,20,0.3
0.08,0.0857768,-0.0169804,3.32677,20,0.3
0.1,0.0842288,-0.0150628,3.3269,20,0.3
0.2,0.0802939,-0.0105357,3.32701,20,0.3
0.3,0.0784984,-0.00868968,3.32707,20,0.3
0.5,0.076608,-0.00693912,3.32712,20,0.3
0.8,0.0751717,-0.00577423,3.32718,20,0.3
1.0,0.0745625,-0.0053565,3.32721,20,0.3
2.0,0.0728857,-0.00444522,3.32724,20,0.3
3.0,0.0719944,-0.0041813,3.32725,20,0.3
5.0,0.0708847,-0.00403001,3.32728,20,0.3
8.0,0.0698622,-0.00406393,3.3273,20,0.3
10.0,0.0693342,-0.00413533,3.32731,20,0.3
11.0,0.0691011,-0.00414631,3.32731,20,0.3
21.0,0.0674583,-0.00454932,3.32732,20,0.3
31.0,0.0663172,-0.00482896,3.32732,20,0.3
61.0,0.0640507,-0.00533135,3.32733,20,0.3
81.0,0.0629889,-0.00550929,3.32733,20,0.3
100.0,0.0621504,-0.00559683,3.32732,20,0.3
110.0,0.0617583,-0.0056387,3.32731,20,0.3
210.0,0.0590911,-0.00562602,3.32733,20,0.3
310.0,0.0573927,-0.00537683,3.32733,20,0.3
510.0,0.0551995,-0.00467501,3.32732,20,0.3
810.0,0.0532079,-0.00347409,3.32732,20,0.3
1000.0,0.0523538,-0.00270583,3.32732,20,0.3

File: Hk_IFR14500_SoC_100_09-06-2023_12-46.csv
Frequency(Hz),R(ohm),X(ohm),V(V),T(deg C),Range(Ohm)
0.01,0.25399,-0.41756,3.46144,20,3.0
0.02,0.190126,-0.266304,3.46308,20,3.0
0.03,0.160775,-0.20515,3.46494,20,3.0
0.05,0.132629,-0.148013,3.46528,20,0.3
0.08,0.113511,-0.104509,3.46651,20,0.3
0.1,0.106584,-0.0890151,3.46719,20,0.3
0.2,0.0911664,-0.0532233,3.46796,20,0.3
0.3,0.0852637,-0.0396319,3.46838,20,0.3
0.5,0.0799006,-0.0276008,3.4688,20,0.3
0.8,0.076294,-0.0201378,3.46909,20,0.3
1.0,0.0748876,-0.0174885,3.46931,20,0.3
2.0,0.0712715,-0.0117206,3.46949,20,0.3
3.0,0.0695598,-0.00959961,3.46963,20,0.3
5.0,0.0676682,-0.00767304,3.46972,20,0.3
8.0,0.0661774,-0.00652139,3.46976,20,0.3
10.0,0.0655367,-0.00612872,3.46982,20,0.3
11.0,0.0652679,-0.00599139,3.46984,20,0.3
21.0,0.0634673,-0.00555783,3.46989,20,0.3
31.0,0.0622592,-0.00556304,3.46989,20,0.3
61.0,0.0599222,-0.00567677,3.46991,20,0.3
81.0,0.0588587,-0.00572063,3.46991,20,0.3
100.0,0.0580452,-0.00571414,3.46991,20,0.3
110.0,0.057649,-0.00573726,3.46989,20,0.3
210.0,0.0549657,-0.00555111,3.46988,20,0.3
310.0,0.0533343,-0.00522846,3.46988,20,0.3
510.0,0.0511933,-0.00436543,3.46988,20,0.3
810.0,0.0492707,-0.00302475,3.46988,20,0.3
1000.0,0.0484501,-0.00218392,3.46987,20,0.3