Folder: virtualizacija-procesa/Baterija/SoC Estimation on Li-ion Batteries A New EIS-based Dataset for data-driven applications/B08/EIS measurements/Test_2/Hioki

File: Hk_IFR14500_SoC_5_31-03-2023_04-10.csv
Frequency(Hz),R(ohm),X(ohm),V(V),T(deg C),Range(Ohm)
0.01,0.175767,-0.083051,3.19017,20,0.3
0.02,0.147193,-0.061908,3.19501,20,0.3
0.03,0.134867,-0.0512669,3.19525,20,0.3
0.05,0.122868,-0.0405487,3.19569,20,0.3
0.08,0.114058,-0.0330414,3.19587,20,0.3
0.1,0.110395,-0.0300728,3.19598,20,0.3
0.2,0.100853,-0.0227882,3.19616,20,0.3
0.3,0.0962823,-0.01953,3.19614,20,0.3
0.5,0.0913737,-0.0162633,3.1962,20,0.3
0.8,0.0875123,-0.0139295,3.19626,20,0.3
1.0,0.08586,-0.0130081,3.19633,20,0.3
2.0,0.0812388,-0.0106702,3.19638,20,0.3
3.0,0.0788715,-0.00955021,3.19644,20,0.3
5.0,0.0762858,-0.00837358,3.19647,20,0.3
8.0,0.0742547,-0.00760576,3.1965,20,0.3
10.0,0.0733788,-0.00738026,3.19653,20,0.3
11.0,0.0730081,-0.00728931,3.19654,20,0.3
21.0,0.0704529,-0.00725158,3.19655,20,0.3
31.0,0.0687078,-0.00740503,3.19654,20,0.3
61.0,0.0654156,-0.00763224,3.19657,20,0.3
81.0,0.0639012,-0.00764418,3.19656,20,0.3
100.0,0.0627679,-0.00762847,3.19656,20,0.3
110.0,0.0622636,-0.0075806,3.19656,20,0.3
210.0,0.0587347,-0.00701973,3.19654,20,0.3
310.0,0.0567452,-0.0063876,3.19656,20,0.3
510.0,0.0544315,-0.00527955,3.19657,20,0.3
810.0,0.0524471,-0.00383783,3.19656,20,0.3
1000.0,0.0515694,-0.0030397,3.19655,20,0.3

File: Hk_IFR14500_SoC_10_31-03-2023_03-09.csv
Frequency(Hz),R(ohm),X(ohm),V(V),T(deg C),Range(Ohm)
0.01,0.168539,-0.0741051,3.20023,20,0.3
0.02,0.141846,-0.0563202,3.20455,20,0.3
0.03,0.130357,-0.0468991,3.20471,20,0.3
0.05,0.119196,-0.0372192,3.20509,20,0.3
0.08,0.111055,-0.0303993,3.20525,20,0.3
0.1,0.107673,-0.02771,3.20535,20,0.3
0.2,0.0988241,-0.0210401,3.20549,20,0.3
0.3,0.0945872,-0.0180395,3.20549,20,0.3
0.5,0.0900492,-0.015013,3.20557,20,0.3
0.8,0.086504,-0.0128574,3.20561,20,0.3
1.0,0.0849867,-0.012004,3.20567,20,0.3
2.0,0.0807504,-0.00992072,3.2057,20,0.3
3.0,0.0785647,-0.00899577,3.20574,20,0.3
5.0,0.076091,-0.008019,3.20579,20,0.3
8.0,0.074113,-0.00739784,3.20582,20,0.3
10.0,0.0732345,-0.00720513,3.20584,20,0.3
11.0,0.0728617,-0.00718503,3.20585,20,0.3
21.0,0.0703081,-0.00709203,3.20586,20,0.3
31.0,0.0686139,-0.00727412,3.20588,20,0.3
61.0,0.0652703,-0.00759648,3.20588,20,0.3
81.0,0.0637644,-0.00763532,3.20587,20,0.3
100.0,0.0626404,-0.00760881,3.20587,20,0.3
110.0,0.0621026,-0.00759195,3.20587,20,0.3
210.0,0.0586034,-0.00707111,3.20587,20,0.3
310.0,0.0566218,-0.00642655,3.20586,20,0.3
510.0,0.0542583,-0.00532221,3.20586,20,0.3
810.0,0.0522226,-0.00389172,3.20587,20,0.3
1000.0,0.0513577,-0.00304863,3.20587,20,0.3

File: Hk_IFR14500_SoC_15_31-03-2023_02-21.csv
Frequency(Hz),R(ohm),X(ohm),V(V),T(deg C),Range(Ohm)
0.01,0.16371,-0.0715125,3.22498,20,0.3
0.02,0.138024,-0.0542611,3.22919,20,0.3
0.03,0.127033,-0.045116,3.22933,20,0.3
0.05,0.116411,-0.0356661,3.2297,20,0.3
0.08,0.10867,-0.0290171,3.22986,20,0.3
0.1,0.105493,-0.0264187,3.22996,20,0.3
0.2,0.0971294,-0.0199682,3.23011,20,0.3
0.3,0.093138,-0.0170781,3.23011,20,0.3
0.5,0.0888772,-0.0141658,3.23018,20,0.3
0.8,0.0855639,-0.0120867,3.23022,20,0.3
1.0,0.0841588,-0.0112893,3.23026,20,0.3
2.0,0.080234,-0.00937974,3.23033,20,0.3
3.0,0.0781803,-0.00852803,3.23037,20,0.3
5.0,0.0758314,-0.00770704,3.23041,20,0.3
8.0,0.0738944,-0.00717226,3.23042,20,0.3
10.0,0.073035,-0.00702904,3.23046,20,0.3
11.0,0.0726612,-0.00696378,3.23046,20,0.3
21.0,0.0701311,-0.00700532,3.23048,20,0.3
31.0,0.0684562,-0.00717453,3.23047,20,0.3
61.0,0.0651593,-0.00754796,3.23049,20,0.3
81.0,0.0636298,-0.00758627,3.23048,20,0.3
100.0,0.0625674,-0.00756473,3.23047,20,0.3
110.0,0.0619937,-0.00752687,3.23048,20,0.3
210.0,0.0585151,-0.00701834,3.23047,20,0.3
310.0,0.0564948,-0.00644567,3.23048,20,0.3
510.0,0.0541324,-0.00532272,3.23048,20,0.3
810.0,0.0520947,-0.00390697,3.23048,20,0.3
1000.0,0.0512274,-0.00307316,3.23048,20,0.3

File: Hk_IFR14500_SoC_20_31-03-2023_01-20.csv
Frequency(Hz),R(ohm),X(ohm),V(V),T(deg C),Range(Ohm)
0.01,0.15895,-0.0674968,3.24726,20,0.3
0.02,0.134182,-0.0514854,3.25111,20,0.3
0.03,0.123661,-0.0427965,3.25117,20,0.3
0.05,0.113542,-0.0337658,3.25146,20,0.3
0.08,0.106256,-0.027427,3.25161,20,0.3
0.1,0.103253,-0.0249262,3.25168,20,0.3
0.2,0.0953963,-0.0187764,3.25181,20,0.3
0.3,0.0916632,-0.0160215,3.25182,20,0.3
0.5,0.0876894,-0.0132413,3.25187,20,0.3
0.8,0.084632,-0.011283,3.25193,20,0.3
1.0,0.083333,-0.0105293,3.25196,20,0.3
2.0,0.0797051,-0.0087494,3.25202,20,0.3
3.0,0.0778038,-0.00802472,3.25206,20,0.3
5.0,0.0755926,-0.00734263,3.25208,20,0.3
8.0,0.0737245,-0.00695202,3.25211,20,0.3
10.0,0.0728857,-0.00685732,3.25212,20,0.3
11.0,0.0725189,-0.00681434,3.25216,20,0.3
21.0,0.0700141,-0.00689782,3.25216,20,0.3
31.0,0.0683391,-0.00713946,3.25214,20,0.3
61.0,0.065059,-0.00749509,3.25216,20,0.3
81.0,0.0635733,-0.00754995,3.25217,20,0.3
100.0,0.0624234,-0.00754968,3.25215,20,0.3
110.0,0.0619194,-0.00750935,3.25215,20,0.3
210.0,0.0584329,-0.00704906,3.25214,20,0.3
310.0,0.0564102,-0.00645139,3.25215,20,0.3
510.0,0.0540212,-0.00537373,3.25215,20,0.3
810.0,0.0519575,-0.00395778,3.25215,20,0.3
1000.0,0.0510713,-0.00310346,3.25215,20,0.3

File: Hk_IFR14500_SoC_25_31-03-2023_00-32.csv
Frequency(Hz),R(ohm),X(ohm),V(V),T(deg C),Range(Ohm)
0.01,0.155475,-0.0644288,3.25946,20,0.3
0.02,0.131435,-0.0494177,3.26323,20,0.3
0.03,0.121278,-0.0411032,3.26332,20,0.3
0.05,0.111551,-0.0323877,3.26361,20,0.3
0.08,0.104568,-0.0262441,3.26376,20,0.3
0.1,0.101705,-0.0238439,3.26385,20,0.3
0.2,0.0942197,-0.0179117,3.26399,20,0.3
0.3,0.0906679,-0.0152623,3.26397,20,0.3
0.5,0.0869113,-0.0125841,3.26404,20,0.3
0.8,0.0840236,-0.0107012,3.26408,20,0.3
1.0,0.0827956,-0.00998498,3.26413,20,0.3
2.0,0.079399,-0.00832325,3.26417,20,0.3
3.0,0.0776041,-0.00765146,3.26422,20,0.3
5.0,0.0755022,-0.0070936,3.26425,20,0.3
8.0,0.0736871,-0.00673437,3.26426,20,0.3
10.0,0.0728397,-0.00669102,3.2643,20,0.3
11.0,0.072494,-0.00667089,3.2643,20,0.3
21.0,0.069984,-0.00685449,3.26431,20,0.3
31.0,0.0683206,-0.00705867,3.26431,20,0.3
61.0,0.0650346,-0.00747899,3.26432,20,0.3
81.0,0.0635399,-0.00755971,3.26431,20,0.3
100.0,0.0624262,-0.00753355,3.2643,20,0.3
110.0,0.0619124,-0.0075266,3.26432,20,0.3
210.0,0.0583767,-0.00707877,3.26431,20,0.3
310.0,0.0563768,-0.00649964,3.26431,20,0.3
510.0,0.0539581,-0.00539929,3.26432,20,0.3
810.0,0.0518829,-0.00398945,3.26432,20,0.3
1000.0,0.0509995,-0.00312586,3.26431,20,0.3

File: Hk_IFR14500_SoC_30_30-03-2023_23-32.csv
Frequency(Hz),R(ohm),X(ohm),V(V),T(deg C),Range(Ohm)
0.01,0.151919,-0.062191,3.27471,20,0.3
0.02,0.12843,-0.0476562,3.27892,20,0.3
0.03,0.118592,-0.0395235,3.27918,20,0.3
0.05,0.109278,-0.0310399,3.27957,20,0.3
0.08,0.102641,-0.02507,3.27977,20,0.3
0.1,0.0999347,-0.0227475,3.27988,20,0.3
0.2,0.0928493,-0.0170254,3.28004,20,0.3
0.3,0.0894924,-0.0144558,3.28004,20,0.3
0.5,0.0859701,-0.011895,3.2801,20,0.3
0.8,0.0832477,-0.0100826,3.28015,20,0.3
1.0,0.0821131,-0.00939015,3.28021,20,0.3
2.0,0.0789588,-0.00784034,3.28025,20,0.3
3.0,0.0772772,-0.00724735,3.28029,20,0.3
5.0,0.0752923,-0.00678893,3.28031,20,0.3
8.0,0.0735286,-0.00650454,3.28034,20,0.3
10.0,0.0727175,-0.00648181,3.28036,20,0.3
11.0,0.0723826,-0.00647931,3.28039,20,0.3
21.0,0.0698859,-0.00669671,3.28039,20,0.3
31.0,0.0682733,-0.00704038,3.2804,20,0.3
61.0,0.0650141,-0.00741186,3.28039,20,0.3
81.0,0.0635279,-0.00749267,3.28039,20,0.3
100.0,0.0623915,-0.00752261,3.28039,20,0.3
110.0,0.0618948,-0.00750971,3.28038,20,0.3
210.0,0.0583846,-0.00709143,3.28039,20,0.3
310.0,0.0563775,-0.00650845,3.28039,20,0.3
510.0,0.053939,-0.00544583,3.28037,20,0.3
810.0,0.0518563,-0.00401324,3.28039,20,0.3
1000.0,0.050957,-0.00317717,3.28038,20,0.3

File: Hk_IFR14500_SoC_35_30-03-2023_22-44.csv
Frequency(Hz),R(ohm),X(ohm),V(V),T(deg C),Range(Ohm)
0.01,0.149232,-0.060366,3.2806,20,0.3
0.02,0.126189,-0.0463292,3.28436,20,0.3
0.03,0.116622,-0.0383817,3.28452,20,0.3
0.05,0.107604,-0.0300473,3.28486,20,0.3
0.08,0.101222,-0.0241961,3.28501,20,0.3
0.1,0.098626,-0.0219332,3.28513,20,0.3
0.2,0.0918424,-0.0163317,3.28525,20,0.3
0.3,0.0886429,-0.013853,3.28526,20,0.3
0.5,0.0852866,-0.0113604,3.28533,20,0.3
0.8,0.0827271,-0.0096183,3.28538,20,0.3
1.0,0.0816438,-0.00894698,3.28541,20,0.3
2.0,0.0786566,-0.00747949,3.28545,20,0.3
3.0,0.0770727,-0.00693481,3.28549,20,0.3
5.0,0.0751688,-0.00651688,3.28552,20,0.3
8.0,0.0734752,-0.00632788,3.28555,20,0.3
10.0,0.0726839,-0.00633063,3.28557,20,0.3
11.0,0.0723537,-0.00633785,3.28557,20,0.3
21.0,0.069915,-0.00657666,3.28559,20,0.3
31.0,0.0682693,-0.00696704,3.2856,20,0.3
61.0,0.0650275,-0.00737364,3.28561,20,0.3
81.0,0.0635569,-0.00745052,3.28558,20,0.3
100.0,0.0624691,-0.00747171,3.28558,20,0.3
110.0,0.0619497,-0.00747134,3.28558,20,0.3
210.0,0.0584366,-0.00704262,3.28557,20,0.3
310.0,0.0564101,-0.00649855,3.28559,20,0.3
510.0,0.0539871,-0.00543389,3.28558,20,0.3
810.0,0.0518749,-0.00401809,3.28558,20,0.3
1000.0,0.0509687,-0.00317526,3.2856,20,0.3

File: Hk_IFR14500_SoC_40_30-03-2023_21-43.csv
Frequency(Hz),R(ohm),X(ohm),V(V),T(deg C),Range(Ohm)
0.01,0.146505,-0.0587337,3.28312,20,0.3
0.02,0.123866,-0.0450446,3.28629,20,0.3
0.03,0.11455,-0.0372397,3.2863,20,0.3
0.05,0.105843,-0.0290412,3.28654,20,0.3
0.08,0.0997238,-0.0233095,3.28665,20,0.3
0.1,0.0972461,-0.0210995,3.28675,20,0.3
0.2,0.0907745,-0.0156502,3.28684,20,0.3
0.3,0.0877436,-0.0132428,3.28685,20,0.3
0.5,0.084553,-0.0108259,3.28691,20,0.3
0.8,0.0821306,-0.00914258,3.28695,20,0.3
1.0,0.0811155,-0.00850183,3.28699,20,0.3
2.0,0.0783047,-0.00709015,3.28702,20,0.3
3.0,0.0768201,-0.00662743,3.28707,20,0.3
5.0,0.0750183,-0.00626087,3.28709,20,0.3
8.0,0.0733758,-0.0061259,3.28711,20,0.3
10.0,0.0726159,-0.00613579,3.28713,20,0.3
11.0,0.0722813,-0.0061482,3.28715,20,0.3
21.0,0.0699126,-0.00647242,3.28715,20,0.3
31.0,0.0682956,-0.00680095,3.28717,20,0.3
61.0,0.0650798,-0.00730472,3.28716,20,0.3
81.0,0.0636013,-0.00740126,3.28715,20,0.3
100.0,0.0624694,-0.00743642,3.28716,20,0.3
110.0,0.06199,-0.00743813,3.28713,20,0.3
210.0,0.0585003,-0.00702064,3.28715,20,0.3
310.0,0.0564661,-0.00648809,3.28715,20,0.3
510.0,0.0540208,-0.00543214,3.28717,20,0.3
810.0,0.0519399,-0.00402487,3.28716,20,0.3
1000.0,0.051015,-0.00316611,3.28715,20,0.3

File: Hk_IFR14500_SoC_45_30-03-2023_20-55.csv
Frequency(Hz),R(ohm),X(ohm),V(V),T(deg C),Range(Ohm)
0.01,0.144445,-0.0571798,3.28393,20,0.3
0.02,0.122123,-0.0439604,3.28691,20,0.3
0.03,0.113005,-0.036316,3.28691,20,0.3
0.05,0.104536,-0.0282499,3.28714,20,0.3
0.08,0.0986203,-0.0226239,3.28726,20,0.3
0.1,0.0962373,-0.0204635,3.28735,20,0.3
0.2,0.0900029,-0.0151236,3.28746,20,0.3
0.3,0.0870823,-0.012767,3.28747,20,0.3
0.5,0.0840294,-0.010418,3.28752,20,0.3
0.8,0.0817038,-0.00876388,3.28756,20,0.3
1.0,0.0807508,-0.00815606,3.2876,20,0.3
2.0,0.0780918,-0.0068226,3.28766,20,0.3
3.0,0.0766605,-0.00635484,3.28768,20,0.3
5.0,0.074932,-0.00603455,3.2877,20,0.3
8.0,0.0733546,-0.00596298,3.28771,20,0.3
10.0,0.0726097,-0.0059965,3.28773,20,0.3
11.0,0.0722922,-0.00602491,3.28774,20,0.3
21.0,0.0699382,-0.00643654,3.28774,20,0.3
31.0,0.068309,-0.00676904,3.28776,20,0.3
61.0,0.0651425,-0.007272,3.28776,20,0.3
81.0,0.0636691,-0.00737569,3.28775,20,0.3
100.0,0.0625726,-0.00742187,3.28775,20,0.3
110.0,0.0620482,-0.00740824,3.28775,20,0.3
210.0,0.0585735,-0.00702527,3.28775,20,0.3
310.0,0.0565327,-0.00647844,3.28775,20,0.3
510.0,0.0541081,-0.00543719,3.28775,20,0.3
810.0,0.0519924,-0.00403667,3.28774,20,0.3
1000.0,0.0510766,-0.00319829,3.28774,20,0.3

File: Hk_IFR14500_SoC_50_30-03-2023_19-54.csv
Frequency(Hz),R(ohm),X(ohm),V(V),T(deg C),Range(Ohm)
0.01,0.142329,-0.0562354,3.2852,20,0.3
0.02,0.120368,-0.0431449,3.28807,20,0.3
0.03,0.111464,-0.0355518,3.28805,20,0.3
0.05,0.103229,-0.0275506,3.28827,20,0.3
0.08,0.0975185,-0.0219915,3.28838,20,0.3
0.1,0.0952204,-0.0198548,3.28846,20,0.3
0.2,0.0892364,-0.0146203,3.28857,20,0.3
0.3,0.086433,-0.0123132,3.28857,20,0.3
0.5,0.0835118,-0.010015,3.28863,20,0.3
0.8,0.0812985,-0.00842421,3.28867,20,0.3
1.0,0.080368,-0.00781768,3.28872,20,0.3
2.0,0.0778503,-0.00653621,3.28874,20,0.3
3.0,0.0765089,-0.00610097,3.28879,20,0.3
5.0,0.0748547,-0.0058306,3.2888,20,0.3
8.0,0.0733466,-0.00582205,3.28882,20,0.3
10.0,0.0726186,-0.00587003,3.28884,20,0.3
11.0,0.0723026,-0.00591931,3.28885,20,0.3
21.0,0.0699781,-0.00634842,3.28885,20,0.3
31.0,0.0684005,-0.0066675,3.28885,20,0.3
61.0,0.0652023,-0.00723069,3.28887,20,0.3
81.0,0.0637484,-0.00734261,3.28886,20,0.3
100.0,0.0626434,-0.0073981,3.28887,20,0.3
110.0,0.0621207,-0.0073894,3.28885,20,0.3
210.0,0.058623,-0.00702763,3.28886,20,0.3
310.0,0.0566058,-0.00648963,3.28885,20,0.3
510.0,0.054191,-0.00545363,3.28886,20,0.3
810.0,0.0520769,-0.00403853,3.28885,20,0.3
1000.0,0.0511588,-0.00319681,3.28886,20,0.3

File: Hk_IFR14500_SoC_55_30-03-2023_19-06.csv
Frequency(Hz),R(ohm),X(ohm),V(V),T(deg C),Range(Ohm)
0.01,0.140609,-0.0559535,3.28653,20,0.3
0.02,0.118973,-0.0427892,3.28934,20,0.3
0.03,0.110236,-0.0351449,3.28937,20,0.3
0.05,0.102215,-0.0271316,3.28963,20,0.3
0.08,0.0966579,-0.0215747,3.28975,20,0.3
0.1,0.0944369,-0.0194507,3.28984,20,0.3
0.2,0.0886427,-0.0142511,3.28997,20,0.3
0.3,0.085942,-0.0119779,3.28997,20,0.3
0.5,0.083114,-0.00971439,3.29003,20,0.3
0.8,0.0809876,-0.00815903,3.29007,20,0.3
1.0,0.0801004,-0.00757212,3.29012,20,0.3
2.0,0.0776653,-0.00629792,3.29015,20,0.3
3.0,0.0763861,-0.00589157,3.29018,20,0.3
5.0,0.0748079,-0.00566604,3.2902,20,0.3
8.0,0.0733441,-0.00568724,3.29023,20,0.3
10.0,0.0726052,-0.00574735,3.29024,20,0.3
11.0,0.0722973,-0.00578053,3.29025,20,0.3
21.0,0.0699905,-0.00627192,3.29026,20,0.3
31.0,0.0684297,-0.00661973,3.29026,20,0.3
61.0,0.0652568,-0.00719231,3.29028,20,0.3
81.0,0.0638002,-0.00731296,3.29026,20,0.3
100.0,0.062695,-0.00735239,3.29028,20,0.3
110.0,0.0621613,-0.00735187,3.29025,20,0.3
210.0,0.0587142,-0.00698439,3.29027,20,0.3
310.0,0.0566728,-0.00648325,3.29025,20,0.3
510.0,0.0542445,-0.00547346,3.29027,20,0.3
810.0,0.0521315,-0.00406838,3.29027,20,0.3
1000.0,0.0512136,-0.00323004,3.29025,20,0.3

File: Hk_IFR14500_SoC_60_30-03-2023_18-06.csv
Frequency(Hz),R(ohm),X(ohm),V(V),T(deg C),Range(Ohm)
0.01,0.139439,-0.0589688,3.29146,20,0.3
0.02,0.117551,-0.0441903,3.29475,20,0.3
0.03,0.108869,-0.0359566,3.29505,20,0.3
0.05,0.100944,-0.0274569,3.29546,20,0.3
0.08,0.0955085,-0.0216298,3.2957,20,0.3
0.1,0.0933425,-0.0194275,3.29586,20,0.3
0.2,0.08772,-0.0140823,3.296,20,0.3
0.3,0.0851028,-0.0117742,3.29604,20,0.3
0.5,0.0823741,-0.00949384,3.29611,20,0.3
0.8,0.0803338,-0.00792189,3.29616,20,0.3
1.0,0.0794773,-0.00734661,3.29623,20,0.3
2.0,0.0771511,-0.00607987,3.29624,20,0.3
3.0,0.0759381,-0.0056937,3.29627,20,0.3
5.0,0.0744253,-0.00548565,3.29632,20,0.3
8.0,0.0730272,-0.0055009,3.29634,20,0.3
10.0,0.0723254,-0.00556956,3.29635,20,0.3
11.0,0.072023,-0.00561766,3.29634,20,0.3
21.0,0.0697958,-0.0060982,3.29636,20,0.3
31.0,0.0682549,-0.00645823,3.29638,20,0.3
61.0,0.0651216,-0.00707175,3.29638,20,0.3
81.0,0.0637026,-0.00720025,3.29637,20,0.3
100.0,0.0626086,-0.00727721,3.29636,20,0.3
110.0,0.0620952,-0.00724472,3.29636,20,0.3
210.0,0.0586655,-0.00692754,3.29637,20,0.3
310.0,0.0566645,-0.0064302,3.29637,20,0.3
510.0,0.0542371,-0.00541693,3.29637,20,0.3
810.0,0.0521235,-0.00404228,3.29637,20,0.3
1000.0,0.0512148,-0.0031918,3.29636,20,0.3

File: Hk_IFR14500_SoC_65_30-03-2023_17-18.csv
Frequency(Hz),R(ohm),X(ohm),V(V),T(deg C),Range(Ohm)
0.01,0.140535,-0.0651184,3.3042,20,0.3
0.02,0.11801,-0.0477325,3.30974,20,0.3
0.03,0.109137,-0.0385102,3.31099,20,0.3
0.05,0.101036,-0.0291068,3.31194,20,0.3
0.08,0.0954895,-0.022724,3.3125,20,0.3
0.1,0.0933028,-0.0203238,3.31284,20,0.3
0.2,0.0876035,-0.0145601,3.31314,20,0.3
0.3,0.0849647,-0.012095,3.31325,20,0.3
0.5,0.0822252,-0.00968938,3.31336,20,0.3
0.8,0.0801726,-0.00803063,3.31344,20,0.3
1.0,0.079324,-0.00742121,3.31352,20,0.3
2.0,0.0770255,-0.00611179,3.31356,20,0.3
3.0,0.075793,-0.00567453,3.3136,20,0.3
5.0,0.0743135,-0.00544442,3.31365,20,0.3
8.0,0.0729209,-0.00544457,3.31368,20,0.3
10.0,0.0722317,-0.0055226,3.31369,20,0.3
11.0,0.0719359,-0.00556881,3.31371,20,0.3
21.0,0.0697336,-0.00610212,3.31372,20,0.3
31.0,0.0681928,-0.0064463,3.31372,20,0.3
61.0,0.065094,-0.007016,3.31373,20,0.3
81.0,0.0636718,-0.007176,3.31373,20,0.3
100.0,0.0626031,-0.00722861,3.31372,20,0.3
110.0,0.0620973,-0.0072524,3.31373,20,0.3
210.0,0.0586597,-0.00692151,3.31373,20,0.3
310.0,0.0566862,-0.006419,3.31373,20,0.3
510.0,0.0542398,-0.00541995,3.31373,20,0.3
810.0,0.0521302,-0.00403486,3.31372,20,0.3
1000.0,0.0512288,-0.00321356,3.31373,20,0.3

File: Hk_IFR14500_SoC_70_30-03-2023_16-17.csv
Frequency(Hz),R(ohm),X(ohm),V(V),T(deg C),Range(Ohm)
0.01,0.139517,-0.0633024,3.31926,20,0.3
0.02,0.116848,-0.0461182,3.32335,20,0.3
0.03,0.108047,-0.037113,3.3238,20,0.3
0.05,0.100117,-0.0280406,3.32428,20,0.3
0.08,0.0947397,-0.0219106,3.32455,20,0.3
0.1,0.0925988,-0.0196006,3.32472,20,0.3
0.2,0.0870763,-0.014065,3.3249,20,0.3
0.3,0.0845067,-0.0117003,3.32494,20,0.3
0.5,0.0818536,-0.00938801,3.32501,20,0.3
0.8,0.0798611,-0.00779945,3.32507,20,0.3
1.0,0.0790272,-0.00720448,3.32512,20,0.3
2.0,0.0767748,-0.00592256,3.32517,20,0.3
3.0,0.0755958,-0.00553131,3.32521,20,0.3
5.0,0.0741499,-0.00530319,3.32523,20,0.3
8.0,0.0728032,-0.00533318,3.32524,20,0.3
10.0,0.0721326,-0.00543034,3.32526,20,0.3
11.0,0.0718394,-0.00549041,3.32527,20,0.3
21.0,0.0696743,-0.0060001,3.32528,20,0.3
31.0,0.0681474,-0.00637989,3.32528,20,0.3
61.0,0.0650611,-0.00698579,3.32529,20,0.3
81.0,0.063656,-0.00713985,3.32528,20,0.3
100.0,0.0625801,-0.00720315,3.32527,20,0.3
110.0,0.0620839,-0.0071978,3.32529,20,0.3
210.0,0.0586744,-0.00692034,3.32527,20,0.3
310.0,0.0566446,-0.00641573,3.32528,20,0.3
510.0,0.0542232,-0.00542403,3.32527,20,0.3
810.0,0.0520924,-0.00404467,3.32529,20,0.3
1000.0,0.0511834,-0.00322184,3.32528,20,0.3

File: Hk_IFR14500_SoC_75_30-03-2023_15-29.csv
Frequency(Hz),R(ohm),X(ohm),V(V),T(deg C),Range(Ohm)
0.01,0.136682,-0.0598676,3.32218,20,0.3
0.02,0.114648,-0.0440679,3.32514,20,0.3
0.03,0.10615,-0.0355282,3.32529,20,0.3
0.05,0.098529,-0.026841,3.32563,20,0.3
0.08,0.0933786,-0.0209542,3.32581,20,0.3
0.1,0.0913513,-0.0187336,3.32595,20,0.3
0.2,0.0860942,-0.0134465,3.32606,20,0.3
0.3,0.0836462,-0.0111804,3.32611,20,0.3
0.5,0.0811059,-0.00896566,3.32617,20,0.3
0.8,0.079203,-0.00745173,3.32623,20,0.3
1.0,0.0784087,-0.00688464,3.32627,20,0.3
2.0,0.0762772,-0.00567046,3.32631,20,0.3
3.0,0.0751465,-0.00528687,3.32634,20,0.3
5.0,0.0737725,-0.00511076,3.32636,20,0.3
8.0,0.0724558,-0.00513655,3.32638,20,0.3
10.0,0.0718476,-0.00526843,3.32639,20,0.3
11.0,0.0715582,-0.00531053,3.32641,20,0.3
21.0,0.0694373,-0.00585851,3.32641,20,0.3
31.0,0.0679393,-0.00629061,3.32643,20,0.3
61.0,0.0649345,-0.00687589,3.32643,20,0.3
81.0,0.0635351,-0.00702356,3.32642,20,0.3
100.0,0.0624358,-0.00708809,3.32642,20,0.3
110.0,0.0619554,-0.00710836,3.32641,20,0.3
210.0,0.0586013,-0.00685549,3.32641,20,0.3
310.0,0.0565749,-0.00637983,3.3264,20,0.3
510.0,0.0541439,-0.00540656,3.32642,20,0.3
810.0,0.0520155,-0.00401682,3.32642,20,0.3
1000.0,0.0511093,-0.00321061,3.32641,20,0.3

File: Hk_IFR14500_SoC_80_30-03-2023_14-28.csv
Frequency(Hz),R(ohm),X(ohm),V(V),T(deg C),Range(Ohm)
0.01,0.133908,-0.0570372,3.32332,20,0.3
0.02,0.11228,-0.0420897,3.32589,20,0.3
0.03,0.103971,-0.033889,3.32596,20,0.3
0.05,0.0966308,-0.025533,3.32623,20,0.3
0.08,0.091721,-0.0198807,3.32639,20,0.3
0.1,0.0897895,-0.0177538,3.32651,20,0.3
0.2,0.0848198,-0.0126965,3.32663,20,0.3
0.3,0.082525,-0.010563,3.32668,20,0.3
0.5,0.0801302,-0.00846554,3.32673,20,0.3
0.8,0.0783154,-0.00702718,3.32678,20,0.3
1.0,0.0775743,-0.00648797,3.32682,20,0.3
2.0,0.0755591,-0.00534466,3.32684,20,0.3
3.0,0.0745135,-0.00500663,3.32689,20,0.3
5.0,0.0732124,-0.00484068,3.32689,20,0.3
8.0,0.0719868,-0.00493613,3.32692,20,0.3
10.0,0.0713701,-0.00500914,3.32693,20,0.3
11.0,0.0710918,-0.00507195,3.32693,20,0.3
21.0,0.069088,-0.00564702,3.32693,20,0.3
31.0,0.0676468,-0.00608592,3.32696,20,0.3
61.0,0.0646979,-0.00671683,3.32696,20,0.3
81.0,0.0633481,-0.00691991,3.32694,20,0.3
100.0,0.0623033,-0.00695181,3.32694,20,0.3
110.0,0.061824,-0.00699912,3.32694,20,0.3
210.0,0.0584509,-0.00675792,3.32695,20,0.3
310.0,0.056478,-0.00632332,3.32694,20,0.3
510.0,0.054037,-0.00536151,3.32694,20,0.3
810.0,0.0519227,-0.00399237,3.32695,20,0.3
1000.0,0.0509894,-0.00317362,3.32695,20,0.3

File: Hk_IFR14500_SoC_85_30-03-2023_13-40.csv
Frequency(Hz),R(ohm),X(ohm),V(V),T(deg C),Range(Ohm)
0.01,0.131329,-0.0545766,3.32382,20,0.3
0.02,0.110649,-0.0405872,3.32619,20,0.3
0.03,0.102796,-0.0327392,3.3262,20,0.3
0.05,0.0958222,-0.0246587,3.32645,20,0.3
0.08,0.0911652,-0.0191654,3.3266,20,0.3
0.1,0.0893406,-0.0171207,3.32673,20,0.3
0.2,0.0846033,-0.0122277,3.32684,20,0.3
0.3,0.0824163,-0.0101563,3.32687,20,0.3
0.5,0.0801205,-0.00814519,3.32694,20,0.3
0.8,0.0784,-0.00677911,3.32697,20,0.3
1.0,0.0776827,-0.00626922,3.327,20,0.3
2.0,0.0757412,-0.00518513,3.32707,20,0.3
3.0,0.0747182,-0.00485805,3.32708,20,0.3
5.0,0.0734775,-0.00473644,3.32711,20,0.3
8.0,0.0722757,-0.00486776,3.32711,20,0.3
10.0,0.0716579,-0.00497539,3.32713,20,0.3
11.0,0.0714,-0.00505658,3.32714,20,0.3
21.0,0.0693761,-0.00564217,3.32714,20,0.3
31.0,0.0679128,-0.00613609,3.32714,20,0.3
61.0,0.0649395,-0.0067935,3.32715,20,0.3
81.0,0.0635442,-0.00698452,3.32714,20,0.3
100.0,0.0624814,-0.00705026,3.32715,20,0.3
110.0,0.0619804,-0.00708284,3.32715,20,0.3
210.0,0.0585935,-0.00687196,3.32714,20,0.3
310.0,0.0565793,-0.00639583,3.32714,20,0.3
510.0,0.0541256,-0.00546822,3.32714,20,0.3
810.0,0.0519749,-0.00407527,3.32714,20,0.3
1000.0,0.051048,-0.00324894,3.32714,20,0.3

File: Hk_IFR14500_SoC_90_30-03-2023_12-40.csv
Frequency(Hz),R(ohm),X(ohm),V(V),T(deg C),Range(Ohm)
0.01,0.12862,-0.0521694,3.32429,20,0.3
0.02,0.108405,-0.0387093,3.32655,20,0.3
0.03,0.100732,-0.0311421,3.32658,20,0.3
0.05,0.0940335,-0.0233444,3.32682,20,0.3
0.08,0.089614,-0.0180681,3.32698,20,0.3
0.1,0.0878876,-0.0160939,3.32711,20,0.3
0.2,0.0834863,-0.0114434,3.32722,20,0.3
0.3,0.0814493,-0.00949682,3.32725,20,0.3
0.5,0.0793121,-0.00761618,3.32731,20,0.3
0.8,0.0777027,-0.00634402,3.32737,20,0.3
1.0,0.0770394,-0.00587546,3.32739,20,0.3
2.0,0.0752122,-0.00487305,3.32742,20,0.3
3.0,0.0742548,-0.00458321,3.32746,20,0.3
5.0,0.0730937,-0.00449514,3.32748,20,0.3
8.0,0.0719759,-0.00462045,3.32749,20,0.3
10.0,0.0713943,-0.00477288,3.32751,20,0.3
11.0,0.0711292,-0.00482537,3.32749,20,0.3
21.0,0.0691701,-0.00548247,3.32751,20,0.3
31.0,0.0677507,-0.00601652,3.32751,20,0.3
61.0,0.0648443,-0.00666141,3.32753,20,0.3
81.0,0.0634923,-0.00689465,3.32751,20,0.3
100.0,0.0624282,-0.00697353,3.32752,20,0.3
110.0,0.0619351,-0.00700283,3.32752,20,0.3
210.0,0.0585335,-0.00680146,3.32752,20,0.3
310.0,0.0565391,-0.00638973,3.32752,20,0.3
510.0,0.0540943,-0.00543885,3.32751,20,0.3
810.0,0.0519379,-0.00408468,3.32753,20,0.3
1000.0,0.0510044,-0.00325286,3.32753,20,0.3

File: Hk_IFR14500_SoC_95_30-03-2023_11-52.csv
Frequency(Hz),R(ohm),X(ohm),V(V),T(deg C),Range(Ohm)
0.01,0.125469,-0.0508152,3.32501,20,0.3
0.02,0.106412,-0.037646,3.3271,20,0.3
0.03,0.0992774,-0.0302176,3.32712,20,0.3
0.05,0.0929951,-0.0225344,3.32737,20,0.3
0.08,0.0888861,-0.0173633,3.32753,20,0.3
0.1,0.0872858,-0.0154332,3.32766,20,0.3
0.2,0.0831836,-0.0108931,3.32778,20,0.3
0.3,0.0812838,-0.00902128,3.32782,20,0.3
0.5,0.0793015,-0.00722889,3.3279,20,0.3
0.8,0.0777941,-0.00601793,3.32792,20,0.3
1.0,0.0771626,-0.00557857,3.32797,20,0.3
2.0,0.0754401,-0.00466198,3.32799,20,0.3
3.0,0.0745326,-0.00441742,3.32802,20,0.3
5.0,0.0733885,-0.00433126,3.32803,20,0.3
8.0,0.0723099,-0.00455127,3.32804,20,0.3
10.0,0.07175,-0.00471311,3.32806,20,0.3
11.0,0.0714965,-0.00479961,3.32807,20,0.3
21.0,0.0695325,-0.00552912,3.3281,20,0.3
31.0,0.0681083,-0.00605144,3.32808,20,0.3
61.0,0.065127,-0.00677481,3.32809,20,0.3
81.0,0.0637432,-0.00698973,3.32808,20,0.3
100.0,0.0626806,-0.00707811,3.32807,20,0.3
110.0,0.0621927,-0.00714736,3.32808,20,0.3
210.0,0.0587607,-0.00694625,3.32808,20,0.3
310.0,0.0566932,-0.00651407,3.32807,20,0.3
510.0,0.0541865,-0.00555387,3.32807,20,0.3
810.0,0.0520055,-0.00416375,3.32808,20,0.3
1000.0,0.0510625,-0.00332391,3.32807,20,0.3

File: Hk_IFR14500_SoC_100_30-03-2023_10-51.csv
Frequency(Hz),R(ohm),X(ohm),V(V),T(deg C),Range(Ohm)
0.01,0.13128,-0.106355,3.35795,20,0.3
0.02,0.112526,-0.0653391,3.3598,20,0.3
0.03,0.105038,-0.0496127,3.35995,20,0.3
0.05,0.09776,-0.035522,3.3603,20,0.3
0.08,0.0924884,-0.0266816,3.3605,20,0.3
0.1,0.0903635,-0.0234855,3.36062,20,0.3
0.2,0.0847297,-0.016016,3.36079,20,0.3
0.3,0.0821332,-0.0129475,3.36082,20,0.3
0.5,0.0794862,-0.0100165,3.36087,20,0.3
0.8,0.0775329,-0.00803247,3.36092,20,0.3
1.0,0.0767512,-0.00730162,3.36096,20,0.3
2.0,0.0746766,-0.00568924,3.36102,20,0.3
3.0,0.0736458,-0.00516784,3.36105,20,0.3
5.0,0.072397,-0.00483982,3.36107,20,0.3
8.0,0.071245,-0.00485504,3.36109,20,0.3
10.0,0.0706731,-0.00495601,3.36111,20,0.3
11.0,0.07041,-0.00499438,3.36113,20,0.3
21.0,0.0684493,-0.00556319,3.36112,20,0.3
31.0,0.0670526,-0.00599242,3.36112,20,0.3
61.0,0.0641485,-0.00669018,3.36114,20,0.3
81.0,0.0627738,-0.00687322,3.36113,20,0.3
100.0,0.0617346,-0.00696515,3.36112,20,0.3
110.0,0.0612646,-0.00702399,3.36112,20,0.3
210.0,0.0579108,-0.00680227,3.36112,20,0.3
310.0,0.0559041,-0.00638358,3.36112,20,0.3
510.0,0.0534131,-0.00544777,3.36111,20,0.3
810.0,0.0512486,-0.00405647,3.36111,20,0.3
1000.0,0.0503033,-0.00321285,3.36112,20,0.3