Folder: virtualizacija-procesa/Baterija/SoC Estimation on Li-ion Batteries A New EIS-based Dataset for data-driven applications/B07/EIS measurements/Test_2/Hioki

File: Hk_IFR14500_SoC_5_30-03-2023_05-15.csv
Frequency(Hz),R(ohm),X(ohm),V(V),T(deg C),Range(Ohm)
0.01,0.171759,-0.0911187,3.17395,20,0.3
0.02,0.142819,-0.065911,3.17954,20,0.3
0.03,0.130466,-0.0537875,3.18007,20,0.3
0.05,0.118562,-0.041873,3.1807,20,0.3
0.08,0.109895,-0.0336858,3.181,20,0.3
0.1,0.106307,-0.030501,3.18118,20,0.3
0.2,0.0969656,-0.0228185,3.18142,20,0.3
0.3,0.0924943,-0.0194289,3.18143,20,0.3
0.5,0.0877045,-0.0160687,3.18154,20,0.3
0.8,0.0839666,-0.0136929,3.18159,20,0.3
1.0,0.0823591,-0.0127599,3.18166,20,0.3
2.0,0.0778764,-0.0104125,3.18173,20,0.3
3.0,0.075617,-0.00935242,3.18177,20,0.3
5.0,0.0731116,-0.00824311,3.18184,20,0.3
8.0,0.0711138,-0.00750335,3.18185,20,0.3
10.0,0.0702479,-0.00732251,3.18188,20,0.3
11.0,0.0698836,-0.00726338,3.1819,20,0.3
21.0,0.0673264,-0.00728323,3.18191,20,0.3
31.0,0.0655827,-0.00744114,3.1819,20,0.3
61.0,0.0621946,-0.00772032,3.18192,20,0.3
81.0,0.0606489,-0.00775098,3.18192,20,0.3
100.0,0.0594825,-0.00771415,3.18193,20,0.3
110.0,0.0589674,-0.00770212,3.18191,20,0.3
210.0,0.0554075,-0.00716125,3.18191,20,0.3
310.0,0.0533642,-0.00650068,3.18191,20,0.3
510.0,0.05093,-0.00534167,3.18191,20,0.3
810.0,0.0488126,-0.00376629,3.18191,20,0.3
1000.0,0.0479207,-0.00283953,3.18191,20,0.3

File: Hk_IFR14500_SoC_10_30-03-2023_04-14.csv
Frequency(Hz),R(ohm),X(ohm),V(V),T(deg C),Range(Ohm)
0.01,0.164821,-0.0748543,3.19756,20,0.3
0.02,0.137732,-0.0567011,3.20165,20,0.3
0.03,0.126221,-0.0470582,3.20177,20,0.3
0.05,0.115137,-0.0371857,3.2021,20,0.3
0.08,0.107078,-0.0302611,3.20225,20,0.3
0.1,0.103744,-0.0275312,3.20235,20,0.3
0.2,0.0950299,-0.0208156,3.20248,20,0.3
0.3,0.0908691,-0.0177936,3.20247,20,0.3
0.5,0.0864365,-0.0147611,3.20253,20,0.3
0.8,0.0829743,-0.0125954,3.20258,20,0.3
1.0,0.0814964,-0.0117497,3.20264,20,0.3
2.0,0.0774012,-0.00969931,3.20268,20,0.3
3.0,0.0752822,-0.00879346,3.20273,20,0.3
5.0,0.0728694,-0.00784575,3.20275,20,0.3
8.0,0.0709334,-0.00727499,3.20279,20,0.3
10.0,0.0700679,-0.00709946,3.20281,20,0.3
11.0,0.0697346,-0.00709347,3.20282,20,0.3
21.0,0.0671932,-0.00713737,3.20282,20,0.3
31.0,0.0654556,-0.00733671,3.20285,20,0.3
61.0,0.0620783,-0.00768268,3.20285,20,0.3
81.0,0.0605705,-0.00773884,3.20283,20,0.3
100.0,0.0594256,-0.00771756,3.20284,20,0.3
110.0,0.0588863,-0.00768405,3.20284,20,0.3
210.0,0.0553084,-0.00717342,3.20284,20,0.3
310.0,0.0532694,-0.00654138,3.20283,20,0.3
510.0,0.0507821,-0.00538761,3.20283,20,0.3
810.0,0.0486768,-0.00380856,3.20284,20,0.3
1000.0,0.0477518,-0.00287166,3.20284,20,0.3

File: Hk_IFR14500_SoC_15_30-03-2023_03-26.csv
Frequency(Hz),R(ohm),X(ohm),V(V),T(deg C),Range(Ohm)
0.01,0.160401,-0.0733074,3.21699,20,0.3
0.02,0.134327,-0.055182,3.22112,20,0.3
0.03,0.123293,-0.0456441,3.22126,20,0.3
0.05,0.112708,-0.0358922,3.22164,20,0.3
0.08,0.10505,-0.0290826,3.2218,20,0.3
0.1,0.101888,-0.0264176,3.22191,20,0.3
0.2,0.0936175,-0.0198614,3.22207,20,0.3
0.3,0.0896819,-0.0169331,3.22208,20,0.3
0.5,0.0855024,-0.0140053,3.22212,20,0.3
0.8,0.0822663,-0.0119288,3.22219,20,0.3
1.0,0.0808773,-0.0111184,3.22223,20,0.3
2.0,0.0770337,-0.00918602,3.22228,20,0.3
3.0,0.075027,-0.00837476,3.22233,20,0.3
5.0,0.0727435,-0.00757287,3.22237,20,0.3
8.0,0.0708483,-0.007069,3.22239,20,0.3
10.0,0.0700087,-0.00693916,3.22241,20,0.3
11.0,0.069663,-0.00693245,3.22242,20,0.3
21.0,0.0671384,-0.00701922,3.22243,20,0.3
31.0,0.0654469,-0.00726419,3.22244,20,0.3
61.0,0.0620853,-0.00762535,3.22245,20,0.3
81.0,0.060571,-0.00768367,3.22244,20,0.3
100.0,0.05941,-0.00769775,3.22243,20,0.3
110.0,0.0588916,-0.00767487,3.22244,20,0.3
210.0,0.0552971,-0.00717188,3.22243,20,0.3
310.0,0.053217,-0.00658928,3.22244,20,0.3
510.0,0.0507355,-0.00543289,3.22243,20,0.3
810.0,0.0485728,-0.00386537,3.22244,20,0.3
1000.0,0.0476553,-0.0029255,3.22245,20,0.3

File: Hk_IFR14500_SoC_20_30-03-2023_02-26.csv
Frequency(Hz),R(ohm),X(ohm),V(V),T(deg C),Range(Ohm)
0.01,0.156004,-0.0692593,3.24171,20,0.3
0.02,0.130849,-0.0524002,3.24553,20,0.3
0.03,0.120275,-0.0433507,3.24558,20,0.3
0.05,0.110173,-0.0340445,3.2459,20,0.3
0.08,0.102916,-0.0275382,3.24604,20,0.3
0.1,0.0999412,-0.0250091,3.24611,20,0.3
0.2,0.0921272,-0.0187443,3.24624,20,0.3
0.3,0.0884356,-0.0159621,3.24625,20,0.3
0.5,0.0845099,-0.0131538,3.24629,20,0.3
0.8,0.0814936,-0.0111793,3.24635,20,0.3
1.0,0.0802053,-0.0104132,3.2464,20,0.3
2.0,0.076653,-0.0086452,3.24643,20,0.3
3.0,0.0747782,-0.00791185,3.24649,20,0.3
5.0,0.0726129,-0.00724743,3.24651,20,0.3
8.0,0.0707785,-0.00685461,3.24653,20,0.3
10.0,0.0699507,-0.00674924,3.24657,20,0.3
11.0,0.0696158,-0.00676256,3.24658,20,0.3
21.0,0.06712,-0.006935,3.24659,20,0.3
31.0,0.065385,-0.00723564,3.24658,20,0.3
61.0,0.0620865,-0.00760049,3.2466,20,0.3
81.0,0.0605973,-0.0076726,3.2466,20,0.3
100.0,0.0594204,-0.00769837,3.24659,20,0.3
110.0,0.0588519,-0.00768417,3.24659,20,0.3
210.0,0.0552745,-0.00722746,3.24658,20,0.3
310.0,0.0532018,-0.00663703,3.24659,20,0.3
510.0,0.0506748,-0.00548461,3.24659,20,0.3
810.0,0.0484969,-0.00393225,3.24659,20,0.3
1000.0,0.0475704,-0.00295862,3.24659,20,0.3

File: Hk_IFR14500_SoC_25_30-03-2023_01-38.csv
Frequency(Hz),R(ohm),X(ohm),V(V),T(deg C),Range(Ohm)
0.01,0.152838,-0.0657335,3.25447,20,0.3
0.02,0.128386,-0.0500884,3.25809,20,0.3
0.03,0.11818,-0.0415128,3.25813,20,0.3
0.05,0.108455,-0.0325954,3.25841,20,0.3
0.08,0.101497,-0.0263586,3.25854,20,0.3
0.1,0.0986375,-0.0239261,3.25862,20,0.3
0.2,0.0911748,-0.0179133,3.25875,20,0.3
0.3,0.0876497,-0.0152356,3.25874,20,0.3
0.5,0.083913,-0.0125219,3.25879,20,0.3
0.8,0.0810529,-0.0106296,3.25885,20,0.3
1.0,0.0798419,-0.00991379,3.25889,20,0.3
2.0,0.0764886,-0.00825108,3.25894,20,0.3
3.0,0.0747158,-0.00758521,3.25898,20,0.3
5.0,0.0726421,-0.00700612,3.25902,20,0.3
8.0,0.0708561,-0.00671953,3.25903,20,0.3
10.0,0.0700301,-0.00663843,3.25905,20,0.3
11.0,0.0696813,-0.00663793,3.25906,20,0.3
21.0,0.067207,-0.00689131,3.25908,20,0.3
31.0,0.0655209,-0.00714923,3.25908,20,0.3
61.0,0.0621432,-0.00761412,3.25908,20,0.3
81.0,0.0606542,-0.00768673,3.25908,20,0.3
100.0,0.0594665,-0.0076985,3.25907,20,0.3
110.0,0.0589527,-0.00770496,3.25908,20,0.3
210.0,0.0553644,-0.00727859,3.25907,20,0.3
310.0,0.0532269,-0.00669452,3.25906,20,0.3
510.0,0.0506611,-0.00556614,3.25907,20,0.3
810.0,0.0484701,-0.00398468,3.25908,20,0.3
1000.0,0.0475257,-0.00304816,3.25907,20,0.3

File: Hk_IFR14500_SoC_30_30-03-2023_00-37.csv
Frequency(Hz),R(ohm),X(ohm),V(V),T(deg C),Range(Ohm)
0.01,0.149629,-0.0635628,3.27089,20,0.3
0.02,0.12577,-0.0483505,3.27498,20,0.3
0.03,0.115898,-0.0399657,3.27519,20,0.3
0.05,0.106558,-0.0312811,3.27556,20,0.3
0.08,0.099922,-0.025246,3.27574,20,0.3
0.1,0.0972007,-0.0228961,3.27586,20,0.3
0.2,0.0900996,-0.0170819,3.27598,20,0.3
0.3,0.086747,-0.0144895,3.276,20,0.3
0.5,0.08322,-0.011902,3.27606,20,0.3
0.8,0.0805197,-0.0100807,3.27611,20,0.3
1.0,0.0793842,-0.00937871,3.27615,20,0.3
2.0,0.0762434,-0.0078147,3.27621,20,0.3
3.0,0.0745882,-0.00723908,3.27623,20,0.3
5.0,0.0726119,-0.00676814,3.27627,20,0.3
8.0,0.0708789,-0.00651757,3.27631,20,0.3
10.0,0.0700865,-0.00650466,3.27632,20,0.3
11.0,0.0697246,-0.00651662,3.27633,20,0.3
21.0,0.067248,-0.00680561,3.27633,20,0.3
31.0,0.0655781,-0.00712427,3.27635,20,0.3
61.0,0.0622482,-0.0075913,3.27633,20,0.3
81.0,0.0607415,-0.00770912,3.27635,20,0.3
100.0,0.0595731,-0.00770809,3.27634,20,0.3
110.0,0.059045,-0.00771774,3.27634,20,0.3
210.0,0.0554002,-0.00727945,3.27634,20,0.3
310.0,0.0532819,-0.00675752,3.27635,20,0.3
510.0,0.0506922,-0.00564938,3.27634,20,0.3
810.0,0.0484508,-0.00404468,3.27635,20,0.3
1000.0,0.0475089,-0.00309736,3.27633,20,0.3

File: Hk_IFR14500_SoC_35_29-03-2023_23-49.csv
Frequency(Hz),R(ohm),X(ohm),V(V),T(deg C),Range(Ohm)
0.01,0.147202,-0.0616284,3.27912,20,0.3
0.02,0.123742,-0.0469631,3.28305,20,0.3
0.03,0.114105,-0.0387868,3.28329,20,0.3
0.05,0.105075,-0.0303135,3.28366,20,0.3
0.08,0.0986576,-0.0243921,3.28383,20,0.3
0.1,0.0960484,-0.0221008,3.28394,20,0.3
0.2,0.0892255,-0.0164459,3.28408,20,0.3
0.3,0.0860223,-0.0139412,3.2841,20,0.3
0.5,0.0826355,-0.0114147,3.28418,20,0.3
0.8,0.0800703,-0.00964912,3.28421,20,0.3
1.0,0.0789881,-0.00897753,3.28427,20,0.3
2.0,0.0760013,-0.00748409,3.28432,20,0.3
3.0,0.0744242,-0.00694861,3.28435,20,0.3
5.0,0.0725495,-0.00654092,3.28438,20,0.3
8.0,0.0708501,-0.00633601,3.2844,20,0.3
10.0,0.0700652,-0.00635578,3.28441,20,0.3
11.0,0.0697245,-0.00634821,3.28442,20,0.3
21.0,0.0673069,-0.00670717,3.28443,20,0.3
31.0,0.0656166,-0.00706768,3.28444,20,0.3
61.0,0.0623164,-0.00755787,3.28445,20,0.3
81.0,0.0607943,-0.00767761,3.28444,20,0.3
100.0,0.0596155,-0.00773176,3.28444,20,0.3
110.0,0.0591308,-0.00769071,3.28444,20,0.3
210.0,0.0554588,-0.00735058,3.28444,20,0.3
310.0,0.0533417,-0.00679408,3.28444,20,0.3
510.0,0.0507197,-0.0056635,3.28442,20,0.3
810.0,0.0484777,-0.00407076,3.28443,20,0.3
1000.0,0.0475226,-0.00312789,3.28445,20,0.3

File: Hk_IFR14500_SoC_40_29-03-2023_22-48.csv
Frequency(Hz),R(ohm),X(ohm),V(V),T(deg C),Range(Ohm)
0.01,0.144577,-0.0600962,3.28269,20,0.3
0.02,0.121562,-0.0457138,3.28589,20,0.3
0.03,0.112209,-0.0376857,3.2859,20,0.3
0.05,0.103472,-0.0293437,3.28615,20,0.3
0.08,0.0973227,-0.0235578,3.28627,20,0.3
0.1,0.0948146,-0.0213201,3.28635,20,0.3
0.2,0.0882829,-0.0158136,3.28646,20,0.3
0.3,0.0852145,-0.0133751,3.28646,20,0.3
0.5,0.0819904,-0.0109227,3.28652,20,0.3
0.8,0.0795481,-0.00921737,3.28657,20,0.3
1.0,0.078519,-0.00856412,3.2866,20,0.3
2.0,0.0757113,-0.00716265,3.28663,20,0.3
3.0,0.0742094,-0.00664889,3.28668,20,0.3
5.0,0.072392,-0.00628977,3.2867,20,0.3
8.0,0.0707863,-0.00618148,3.28672,20,0.3
10.0,0.0700205,-0.00620159,3.28674,20,0.3
11.0,0.0696885,-0.00625521,3.28675,20,0.3
21.0,0.0672962,-0.00661395,3.28676,20,0.3
31.0,0.0656458,-0.00698952,3.28677,20,0.3
61.0,0.0623401,-0.00751713,3.28676,20,0.3
81.0,0.0608288,-0.00763658,3.28676,20,0.3
100.0,0.0596729,-0.00767444,3.28677,20,0.3
110.0,0.0591298,-0.00767727,3.28676,20,0.3
210.0,0.055529,-0.00732846,3.28675,20,0.3
310.0,0.053372,-0.00676498,3.28675,20,0.3
510.0,0.0507729,-0.0056534,3.28676,20,0.3
810.0,0.0485016,-0.00408035,3.28675,20,0.3
1000.0,0.0475461,-0.00313109,3.28676,20,0.3

File: Hk_IFR14500_SoC_45_29-03-2023_22-00.csv
Frequency(Hz),R(ohm),X(ohm),V(V),T(deg C),Range(Ohm)
0.01,0.142567,-0.0585717,3.28356,20,0.3
0.02,0.119875,-0.0446584,3.28652,20,0.3
0.03,0.110724,-0.0367767,3.28651,20,0.3
0.05,0.102225,-0.0285805,3.28674,20,0.3
0.08,0.0962659,-0.0228938,3.28685,20,0.3
0.1,0.0938472,-0.0207065,3.28692,20,0.3
0.2,0.0875416,-0.0153172,3.28703,20,0.3
0.3,0.084581,-0.0129317,3.28705,20,0.3
0.5,0.0814843,-0.0105467,3.2871,20,0.3
0.8,0.0791405,-0.00887728,3.28714,20,0.3
1.0,0.0781601,-0.00824892,3.28718,20,0.3
2.0,0.0754656,-0.00688682,3.28722,20,0.3
3.0,0.0740396,-0.0064185,3.28726,20,0.3
5.0,0.0722974,-0.00609966,3.28728,20,0.3
8.0,0.0707368,-0.00602613,3.2873,20,0.3
10.0,0.0699793,-0.00607675,3.28732,20,0.3
11.0,0.0696539,-0.00609816,3.28732,20,0.3
21.0,0.0672942,-0.00654687,3.28733,20,0.3
31.0,0.0656441,-0.00690114,3.28734,20,0.3
61.0,0.0623575,-0.0074677,3.28734,20,0.3
81.0,0.0608481,-0.00761314,3.28735,20,0.3
100.0,0.0596948,-0.00765357,3.28734,20,0.3
110.0,0.0591813,-0.00763746,3.28733,20,0.3
210.0,0.0555509,-0.00729571,3.28735,20,0.3
310.0,0.0534169,-0.00677244,3.28733,20,0.3
510.0,0.0508277,-0.00565983,3.28734,20,0.3
810.0,0.0485768,-0.00409278,3.28733,20,0.3
1000.0,0.0475918,-0.00314939,3.28734,20,0.3

File: Hk_IFR14500_SoC_50_29-03-2023_21-00.csv
Frequency(Hz),R(ohm),X(ohm),V(V),T(deg C),Range(Ohm)
0.01,0.14065,-0.0575211,3.28461,20,0.3
0.02,0.118247,-0.0438002,3.28746,20,0.3
0.03,0.109294,-0.035972,3.28742,20,0.3
0.05,0.101033,-0.0278674,3.28764,20,0.3
0.08,0.0952676,-0.0222544,3.28777,20,0.3
0.1,0.0929314,-0.0201123,3.28785,20,0.3
0.2,0.0868482,-0.0148362,3.28795,20,0.3
0.3,0.0839879,-0.0124911,3.28796,20,0.3
0.5,0.0810198,-0.0101576,3.288,20,0.3
0.8,0.0787787,-0.00854941,3.28804,20,0.3
1.0,0.0778347,-0.00793894,3.28809,20,0.3
2.0,0.0752587,-0.00661744,3.28814,20,0.3
3.0,0.0739007,-0.00619153,3.28815,20,0.3
5.0,0.0722388,-0.00591174,3.28817,20,0.3
8.0,0.0707062,-0.00586286,3.28819,20,0.3
10.0,0.0699898,-0.00595236,3.28821,20,0.3
11.0,0.0696479,-0.005935,3.28822,20,0.3
21.0,0.0673243,-0.00645922,3.28824,20,0.3
31.0,0.0656757,-0.00684956,3.28824,20,0.3
61.0,0.0624241,-0.0074378,3.28824,20,0.3
81.0,0.0609218,-0.00757407,3.28823,20,0.3
100.0,0.0597928,-0.00764638,3.28824,20,0.3
110.0,0.0592337,-0.00763802,3.28824,20,0.3
210.0,0.0556583,-0.00730061,3.28825,20,0.3
310.0,0.0534937,-0.00676855,3.28823,20,0.3
510.0,0.0508816,-0.00566564,3.28824,20,0.3
810.0,0.0486281,-0.00411021,3.28824,20,0.3
1000.0,0.047656,-0.0031664,3.28824,20,0.3

File: Hk_IFR14500_SoC_55_29-03-2023_20-12.csv
Frequency(Hz),R(ohm),X(ohm),V(V),T(deg C),Range(Ohm)
0.01,0.139003,-0.0569078,3.28562,20,0.3
0.02,0.116906,-0.0432616,3.28844,20,0.3
0.03,0.108137,-0.0354851,3.28843,20,0.3
0.05,0.100078,-0.027396,3.28869,20,0.3
0.08,0.0944753,-0.0218272,3.28882,20,0.3
0.1,0.0922118,-0.0196919,3.28892,20,0.3
0.2,0.0863048,-0.0144618,3.28903,20,0.3
0.3,0.0835478,-0.0121697,3.28904,20,0.3
0.5,0.0806605,-0.00987655,3.28908,20,0.3
0.8,0.0785035,-0.00829749,3.28912,20,0.3
1.0,0.0776018,-0.00770379,3.28917,20,0.3
2.0,0.0751239,-0.00642561,3.2892,20,0.3
3.0,0.0738136,-0.00600871,3.28924,20,0.3
5.0,0.0722036,-0.00575643,3.28926,20,0.3
8.0,0.0707275,-0.00577043,3.28928,20,0.3
10.0,0.0699955,-0.00585254,3.2893,20,0.3
11.0,0.0697034,-0.00588481,3.28931,20,0.3
21.0,0.0673475,-0.00639393,3.28931,20,0.3
31.0,0.0657496,-0.00677844,3.28932,20,0.3
61.0,0.0624811,-0.00740579,3.28932,20,0.3
81.0,0.0609812,-0.00755503,3.28933,20,0.3
100.0,0.0598474,-0.00758903,3.28932,20,0.3
110.0,0.0593152,-0.00760493,3.28933,20,0.3
210.0,0.0556933,-0.00727871,3.28931,20,0.3
310.0,0.0535452,-0.00677183,3.28933,20,0.3
510.0,0.0509342,-0.00567415,3.28931,20,0.3
810.0,0.048675,-0.0041157,3.28933,20,0.3
1000.0,0.0477098,-0.00316728,3.28931,20,0.3

File: Hk_IFR14500_SoC_60_29-03-2023_19-11.csv
Frequency(Hz),R(ohm),X(ohm),V(V),T(deg C),Range(Ohm)
0.01,0.137775,-0.0590111,3.28912,20,0.3
0.02,0.115743,-0.04417,3.29204,20,0.3
0.03,0.107098,-0.0359481,3.29216,20,0.3
0.05,0.0991853,-0.027523,3.29249,20,0.3
0.08,0.0937105,-0.0217767,3.29266,20,0.3
0.1,0.0915181,-0.0195916,3.29278,20,0.3
0.2,0.0857721,-0.0142816,3.29291,20,0.3
0.3,0.0830875,-0.0119653,3.29294,20,0.3
0.5,0.0802965,-0.00967366,3.293,20,0.3
0.8,0.078195,-0.00808239,3.29305,20,0.3
1.0,0.077332,-0.00750528,3.29308,20,0.3
2.0,0.0749388,-0.00622366,3.29312,20,0.3
3.0,0.073666,-0.00582827,3.29316,20,0.3
5.0,0.0721391,-0.00561814,3.29318,20,0.3
8.0,0.0706991,-0.00563263,3.2932,20,0.3
10.0,0.0699856,-0.00573088,3.29321,20,0.3
11.0,0.0696853,-0.00578831,3.29324,20,0.3
21.0,0.0673854,-0.00639118,3.29322,20,0.3
31.0,0.0657673,-0.00675415,3.29322,20,0.3
61.0,0.0625338,-0.00736443,3.29325,20,0.3
81.0,0.0610404,-0.00754564,3.29325,20,0.3
100.0,0.0599109,-0.00758898,3.29323,20,0.3
110.0,0.0593709,-0.00758253,3.29323,20,0.3
210.0,0.0557523,-0.00729284,3.29323,20,0.3
310.0,0.0536242,-0.00677175,3.29323,20,0.3
510.0,0.0510064,-0.00568845,3.29324,20,0.3
810.0,0.0487112,-0.00414282,3.29323,20,0.3
1000.0,0.0477507,-0.00319323,3.29324,20,0.3

File: Hk_IFR14500_SoC_65_29-03-2023_18-23.csv
Frequency(Hz),R(ohm),X(ohm),V(V),T(deg C),Range(Ohm)
0.01,0.137543,-0.0643051,3.29853,20,0.3
0.02,0.114949,-0.0471325,3.30308,20,0.3
0.03,0.106203,-0.0380115,3.30398,20,0.3
0.05,0.0982224,-0.0287678,3.30477,20,0.3
0.08,0.0927529,-0.0225107,3.30521,20,0.3
0.1,0.0905731,-0.0201565,3.30553,20,0.3
0.2,0.0848801,-0.014486,3.30575,20,0.3
0.3,0.082242,-0.0120573,3.30585,20,0.3
0.5,0.0795021,-0.00966834,3.30595,20,0.3
0.8,0.077455,-0.00805678,3.30602,20,0.3
1.0,0.0765936,-0.00743332,3.3061,20,0.3
2.0,0.0742711,-0.00612199,3.30615,20,0.3
3.0,0.0730418,-0.00571363,3.3062,20,0.3
5.0,0.0715463,-0.00548197,3.30621,20,0.3
8.0,0.0701457,-0.00549505,3.30623,20,0.3
10.0,0.0694684,-0.00558331,3.30625,20,0.3
11.0,0.0691669,-0.00560749,3.30626,20,0.3
21.0,0.0669366,-0.00617718,3.30626,20,0.3
31.0,0.0653915,-0.00653932,3.30627,20,0.3
61.0,0.0622217,-0.00720788,3.30629,20,0.3
81.0,0.0607601,-0.00734331,3.30627,20,0.3
100.0,0.0596648,-0.00741855,3.30628,20,0.3
110.0,0.059143,-0.00741468,3.30628,20,0.3
210.0,0.0556042,-0.00713843,3.30628,20,0.3
310.0,0.0534937,-0.00665433,3.30628,20,0.3
510.0,0.0508933,-0.0056115,3.30627,20,0.3
810.0,0.0486467,-0.00407726,3.30629,20,0.3
1000.0,0.0476815,-0.00313594,3.30627,20,0.3

File: Hk_IFR14500_SoC_70_29-03-2023_17-22.csv
Frequency(Hz),R(ohm),X(ohm),V(V),T(deg C),Range(Ohm)
0.01,0.137295,-0.0657978,3.31704,20,0.3
0.02,0.114285,-0.0473382,3.32179,20,0.3
0.03,0.105484,-0.0379234,3.32251,20,0.3
0.05,0.0975259,-0.0285802,3.32311,20,0.3
0.08,0.0920961,-0.0223255,3.32346,20,0.3
0.1,0.08993,-0.0199639,3.32368,20,0.3
0.2,0.0843116,-0.0143311,3.32386,20,0.3
0.3,0.08171,-0.0119234,3.32393,20,0.3
0.5,0.0789878,-0.00955425,3.32401,20,0.3
0.8,0.0769635,-0.00794091,3.32407,20,0.3
1.0,0.0761214,-0.00734292,3.32412,20,0.3
2.0,0.0738335,-0.00601105,3.32417,20,0.3
3.0,0.0726318,-0.00560916,3.32421,20,0.3
5.0,0.0711717,-0.00536544,3.32422,20,0.3
8.0,0.0698129,-0.00538827,3.32426,20,0.3
10.0,0.0691351,-0.00547142,3.32426,20,0.3
11.0,0.0688485,-0.00554524,3.32429,20,0.3
21.0,0.0666848,-0.00602648,3.32429,20,0.3
31.0,0.065159,-0.00643587,3.32431,20,0.3
61.0,0.0620525,-0.00704292,3.3243,20,0.3
81.0,0.0606188,-0.0072428,3.32431,20,0.3
100.0,0.0595385,-0.00730754,3.3243,20,0.3
110.0,0.059008,-0.00731929,3.3243,20,0.3
210.0,0.0555332,-0.00710162,3.32429,20,0.3
310.0,0.0534135,-0.00662832,3.3243,20,0.3
510.0,0.0508285,-0.00558677,3.32431,20,0.3
810.0,0.0485588,-0.00406863,3.32429,20,0.3
1000.0,0.0475974,-0.00312841,3.32429,20,0.3

File: Hk_IFR14500_SoC_75_29-03-2023_16-34.csv
Frequency(Hz),R(ohm),X(ohm),V(V),T(deg C),Range(Ohm)
0.01,0.135717,-0.0635651,3.32224,20,0.3
0.02,0.112946,-0.0458073,3.32523,20,0.3
0.03,0.104305,-0.0366623,3.32536,20,0.3
0.05,0.0965822,-0.0276104,3.32568,20,0.3
0.08,0.0913241,-0.0215481,3.32588,20,0.3
0.1,0.0892268,-0.0192707,3.326,20,0.3
0.2,0.0837985,-0.0138322,3.32612,20,0.3
0.3,0.0812839,-0.0115121,3.32616,20,0.3
0.5,0.0786597,-0.00922964,3.32622,20,0.3
0.8,0.0767059,-0.00767588,3.32627,20,0.3
1.0,0.0758864,-0.00707926,3.32631,20,0.3
2.0,0.0736775,-0.00583678,3.32635,20,0.3
3.0,0.0725297,-0.00544514,3.32639,20,0.3
5.0,0.0711054,-0.00524185,3.32639,20,0.3
8.0,0.0697698,-0.00527358,3.32642,20,0.3
10.0,0.0691138,-0.00535521,3.32645,20,0.3
11.0,0.0688433,-0.00544813,3.32644,20,0.3
21.0,0.0666861,-0.00598789,3.32645,20,0.3
31.0,0.0651561,-0.00644095,3.32646,20,0.3
61.0,0.0620844,-0.00706107,3.32648,20,0.3
81.0,0.0606524,-0.0072193,3.32646,20,0.3
100.0,0.0595609,-0.00730005,3.32645,20,0.3
110.0,0.0590092,-0.00734126,3.32646,20,0.3
210.0,0.0555252,-0.00710227,3.32645,20,0.3
310.0,0.0534209,-0.00665265,3.32647,20,0.3
510.0,0.0508173,-0.00562823,3.32646,20,0.3
810.0,0.04855,-0.00408226,3.32646,20,0.3
1000.0,0.0475665,-0.00314585,3.32644,20,0.3

File: Hk_IFR14500_SoC_80_29-03-2023_15-34.csv
Frequency(Hz),R(ohm),X(ohm),V(V),T(deg C),Range(Ohm)
0.01,0.133527,-0.0599398,3.32293,20,0.3
0.02,0.111343,-0.0436943,3.3256,20,0.3
0.03,0.102944,-0.0350703,3.32569,20,0.3
0.05,0.0954782,-0.0264376,3.32598,20,0.3
0.08,0.0904242,-0.020634,3.32615,20,0.3
0.1,0.0884168,-0.0184464,3.32628,20,0.3
0.2,0.0832193,-0.0132407,3.32638,20,0.3
0.3,0.0808144,-0.0110276,3.3264,20,0.3
0.5,0.0783043,-0.00885804,3.32646,20,0.3
0.8,0.0764188,-0.00735708,3.32651,20,0.3
1.0,0.0756381,-0.00680542,3.32656,20,0.3
2.0,0.0735248,-0.00562188,3.32659,20,0.3
3.0,0.0723973,-0.00523845,3.32663,20,0.3
5.0,0.0710322,-0.00505809,3.32665,20,0.3
8.0,0.0697593,-0.00513923,3.32666,20,0.3
10.0,0.0691115,-0.00525968,3.32666,20,0.3
11.0,0.0688394,-0.00533654,3.32668,20,0.3
21.0,0.0667059,-0.00593172,3.32669,20,0.3
31.0,0.0651936,-0.0063698,3.3267,20,0.3
61.0,0.062133,-0.0070557,3.32668,20,0.3
81.0,0.0606976,-0.00723892,3.32671,20,0.3
100.0,0.0595799,-0.00732602,3.3267,20,0.3
110.0,0.0590835,-0.00734199,3.3267,20,0.3
210.0,0.0555115,-0.00717159,3.32669,20,0.3
310.0,0.0534349,-0.00668961,3.3267,20,0.3
510.0,0.0507981,-0.00564486,3.32668,20,0.3
810.0,0.0485144,-0.00411445,3.32669,20,0.3
1000.0,0.0475231,-0.00318363,3.3267,20,0.3

File: Hk_IFR14500_SoC_85_29-03-2023_14-46.csv
Frequency(Hz),R(ohm),X(ohm),V(V),T(deg C),Range(Ohm)
0.01,0.131556,-0.0575499,3.32328,20,0.3
0.02,0.109943,-0.042146,3.32575,20,0.3
0.03,0.101813,-0.0338494,3.3258,20,0.3
0.05,0.0946102,-0.0254887,3.3261,20,0.3
0.08,0.0897601,-0.0198609,3.32623,20,0.3
0.1,0.0878318,-0.0177518,3.32636,20,0.3
0.2,0.0828714,-0.0127298,3.32647,20,0.3
0.3,0.080567,-0.0105856,3.3265,20,0.3
0.5,0.0781742,-0.00850418,3.32656,20,0.3
0.8,0.0763666,-0.0070821,3.3266,20,0.3
1.0,0.0756148,-0.00654096,3.32664,20,0.3
2.0,0.0735767,-0.00542397,3.32668,20,0.3
3.0,0.0725031,-0.00508712,3.3267,20,0.3
5.0,0.0711944,-0.00495855,3.32671,20,0.3
8.0,0.0699452,-0.00508145,3.32675,20,0.3
10.0,0.0693105,-0.00521357,3.32675,20,0.3
11.0,0.0690179,-0.00524119,3.32677,20,0.3
21.0,0.0669135,-0.00594298,3.32676,20,0.3
31.0,0.0654041,-0.00636858,3.32678,20,0.3
61.0,0.062289,-0.00708981,3.32678,20,0.3
81.0,0.0608454,-0.00732055,3.32678,20,0.3
100.0,0.0597264,-0.00741462,3.32679,20,0.3
110.0,0.0592254,-0.00744119,3.32679,20,0.3
210.0,0.0556662,-0.00720739,3.32678,20,0.3
310.0,0.053504,-0.00676085,3.32678,20,0.3
510.0,0.0508519,-0.00571411,3.32677,20,0.3
810.0,0.0485507,-0.0041805,3.32678,20,0.3
1000.0,0.0475683,-0.00324001,3.32677,20,0.3

File: Hk_IFR14500_SoC_90_29-03-2023_13-45.csv
Frequency(Hz),R(ohm),X(ohm),V(V),T(deg C),Range(Ohm)
0.01,0.129089,-0.0552828,3.32377,20,0.3
0.02,0.108298,-0.040539,3.326,20,0.3
0.03,0.100528,-0.0325254,3.32601,20,0.3
0.05,0.0936504,-0.0244148,3.32627,20,0.3
0.08,0.0890528,-0.01897,3.32642,20,0.3
0.1,0.0872322,-0.0169234,3.32653,20,0.3
0.2,0.0825564,-0.0120873,3.32664,20,0.3
0.3,0.0803805,-0.010034,3.32667,20,0.3
0.5,0.0781237,-0.00806776,3.32673,20,0.3
0.8,0.0764304,-0.00674062,3.32679,20,0.3
1.0,0.075703,-0.00622943,3.32681,20,0.3
2.0,0.0737723,-0.0052056,3.32684,20,0.3
3.0,0.0727551,-0.00492004,3.32686,20,0.3
5.0,0.0714888,-0.00483139,3.32689,20,0.3
8.0,0.070246,-0.00497304,3.32692,20,0.3
10.0,0.069629,-0.00510887,3.32691,20,0.3
11.0,0.0693637,-0.00520305,3.32693,20,0.3
21.0,0.067257,-0.0059263,3.32694,20,0.3
31.0,0.065714,-0.00640878,3.32693,20,0.3
61.0,0.0625795,-0.0071971,3.32694,20,0.3
81.0,0.0611209,-0.00739463,3.32694,20,0.3
100.0,0.0599715,-0.0075135,3.32694,20,0.3
110.0,0.0594333,-0.0075347,3.32695,20,0.3
210.0,0.0558218,-0.00735366,3.32693,20,0.3
310.0,0.0536366,-0.00689584,3.32693,20,0.3
510.0,0.0509398,-0.00584056,3.32693,20,0.3
810.0,0.0485684,-0.00431031,3.32694,20,0.3
1000.0,0.0475769,-0.0033472,3.32694,20,0.3

File: Hk_IFR14500_SoC_95_29-03-2023_12-57.csv
Frequency(Hz),R(ohm),X(ohm),V(V),T(deg C),Range(Ohm)
0.01,0.125071,-0.0525404,3.32395,20,0.3
0.02,0.105145,-0.0385976,3.32611,20,0.3
0.03,0.0977335,-0.0309123,3.32615,20,0.3
0.05,0.091266,-0.0230992,3.32641,20,0.3
0.08,0.086987,-0.0178441,3.32659,20,0.3
0.1,0.0853081,-0.0158725,3.32671,20,0.3
0.2,0.0810376,-0.011251,3.32683,20,0.3
0.3,0.0790532,-0.00931928,3.32688,20,0.3
0.5,0.0769987,-0.00747322,3.32694,20,0.3
0.8,0.0754392,-0.00623734,3.32697,20,0.3
1.0,0.0747885,-0.00578735,3.32702,20,0.3
2.0,0.0729822,-0.00483436,3.32704,20,0.3
3.0,0.0720563,-0.00460753,3.32709,20,0.3
5.0,0.0708691,-0.00454023,3.32709,20,0.3
8.0,0.0697197,-0.00470011,3.32711,20,0.3
10.0,0.0691483,-0.00486372,3.32712,20,0.3
11.0,0.0688774,-0.00495401,3.32713,20,0.3
21.0,0.0668658,-0.00570339,3.32714,20,0.3
31.0,0.0653999,-0.00628579,3.32714,20,0.3
61.0,0.0623325,-0.00700741,3.32715,20,0.3
81.0,0.060893,-0.00722491,3.32714,20,0.3
100.0,0.0597917,-0.00735619,3.32713,20,0.3
110.0,0.0592947,-0.00740342,3.32713,20,0.3
210.0,0.0556916,-0.00725632,3.32716,20,0.3
310.0,0.0535304,-0.00681475,3.32713,20,0.3
510.0,0.0508518,-0.0058133,3.32714,20,0.3
810.0,0.0484866,-0.00427048,3.32713,20,0.3
1000.0,0.0474827,-0.00332387,3.32714,20,0.3

File: Hk_IFR14500_SoC_100_29-03-2023_11-56.csv
Frequency(Hz),R(ohm),X(ohm),V(V),T(deg C),Range(Ohm)
0.01,0.130766,-0.0994892,3.35012,20,0.3
0.02,0.111017,-0.0614651,3.35168,20,0.3
0.03,0.103462,-0.0467123,3.35175,20,0.3
0.05,0.0963403,-0.0335453,3.35204,20,0.3
0.08,0.091225,-0.0252905,3.35222,20,0.3
0.1,0.0891479,-0.0222963,3.35233,20,0.3
0.2,0.0836944,-0.0153042,3.35246,20,0.3
0.3,0.0811806,-0.0124331,3.35249,20,0.3
0.5,0.0786065,-0.00969273,3.35256,20,0.3
0.8,0.0766939,-0.0078491,3.35258,20,0.3
1.0,0.0759095,-0.0071686,3.35263,20,0.3
2.0,0.073842,-0.00572553,3.35267,20,0.3
3.0,0.0727858,-0.00528289,3.35271,20,0.3
5.0,0.0714774,-0.00505114,3.35273,20,0.3
8.0,0.0702527,-0.00515707,3.35275,20,0.3
10.0,0.0696214,-0.00525876,3.35276,20,0.3
11.0,0.0693543,-0.0053211,3.35278,20,0.3
21.0,0.0672127,-0.00606304,3.35278,20,0.3
31.0,0.0656843,-0.00655877,3.35277,20,0.3
61.0,0.0625057,-0.00733785,3.35277,20,0.3
81.0,0.0609996,-0.00751851,3.35278,20,0.3
100.0,0.0598683,-0.00762528,3.35276,20,0.3
110.0,0.0593248,-0.00767094,3.35277,20,0.3
210.0,0.0556345,-0.00751136,3.35276,20,0.3
310.0,0.0533916,-0.00703675,3.35277,20,0.3
510.0,0.0506523,-0.00599245,3.35278,20,0.3
810.0,0.0482264,-0.00442405,3.35277,20,0.3
1000.0,0.0471932,-0.00344612,3.35277,20,0.3