Folder: virtualizacija-procesa/Baterija/SoC Estimation on Li-ion Batteries A New EIS-based Dataset for data-driven applications/B03/EIS measurements/Test_2/Hioki

File: Hk_IFR14500_SoC_5_09-06-2023_11-37.csv
Frequency(Hz),R(ohm),X(ohm),V(V),T(deg C),Range(Ohm)
0.01,0.195746,-0.0891253,3.18046,20,0.3
0.02,0.166419,-0.065317,3.18669,20,0.3
0.03,0.153718,-0.0535956,3.18724,20,0.3
0.05,0.141532,-0.0418348,3.18787,20,0.3
0.08,0.132752,-0.0336642,3.18815,20,0.3
0.1,0.129156,-0.030485,3.18833,20,0.3
0.2,0.119808,-0.0228597,3.18856,20,0.3
0.3,0.115317,-0.0195096,3.18859,20,0.3
0.5,0.110496,-0.016211,3.18868,20,0.3
0.8,0.106696,-0.0138782,3.18873,20,0.3
1.0,0.105052,-0.0129588,3.18881,20,0.3
2.0,0.100468,-0.0106798,3.18886,20,0.3
3.0,0.098102,-0.00964157,3.18892,20,0.3
5.0,0.0954163,-0.0084441,3.18896,20,0.3
8.0,0.0932984,-0.00761544,3.18899,20,0.3
10.0,0.0924126,-0.0073502,3.18903,20,0.3
11.0,0.0920205,-0.00724306,3.18903,20,0.3
21.0,0.0895929,-0.00687536,3.18904,20,0.3
31.0,0.0880438,-0.00695456,3.18906,20,0.3
61.0,0.0851294,-0.00725982,3.18907,20,0.3
81.0,0.0838079,-0.00739709,3.18907,20,0.3
100.0,0.0827675,-0.00751339,3.18905,20,0.3
110.0,0.0823113,-0.00756019,3.18905,20,0.3
210.0,0.0790285,-0.00776053,3.18905,20,0.3
310.0,0.0769993,-0.00781461,3.18904,20,0.3
510.0,0.0742808,-0.00778542,3.18904,20,0.3
810.0,0.071608,-0.00759641,3.18907,20,0.3
1000.0,0.0702667,-0.0074225,3.18906,20,0.3

File: Hk_IFR14500_SoC_10_09-06-2023_10-36.csv
Frequency(Hz),R(ohm),X(ohm),V(V),T(deg C),Range(Ohm)
0.01,0.189329,-0.0743124,3.19938,20,0.3
0.02,0.161948,-0.0570779,3.20355,20,0.3
0.03,0.149991,-0.0476272,3.20356,20,0.3
0.05,0.138477,-0.0377307,3.20386,20,0.3
0.08,0.130194,-0.0306984,3.20397,20,0.3
0.1,0.126777,-0.0279343,3.20406,20,0.3
0.2,0.117918,-0.0211551,3.20417,20,0.3
0.3,0.113678,-0.0181305,3.20415,20,0.3
0.5,0.109133,-0.0150969,3.20421,20,0.3
0.8,0.105578,-0.0129567,3.20426,20,0.3
1.0,0.104033,-0.0121057,3.20432,20,0.3
2.0,0.0997559,-0.010048,3.20436,20,0.3
3.0,0.0975144,-0.00911912,3.20442,20,0.3
5.0,0.0949528,-0.00812592,3.20445,20,0.3
8.0,0.0928892,-0.00742031,3.20448,20,0.3
10.0,0.0919949,-0.00717594,3.20449,20,0.3
11.0,0.0915999,-0.00708419,3.20451,20,0.3
21.0,0.0891708,-0.00682699,3.20452,20,0.3
31.0,0.0876163,-0.00689294,3.20453,20,0.3
61.0,0.0847026,-0.00723677,3.20453,20,0.3
81.0,0.0833715,-0.00741073,3.20453,20,0.3
100.0,0.0823744,-0.00752933,3.20452,20,0.3
110.0,0.0818785,-0.00755807,3.20453,20,0.3
210.0,0.0786271,-0.00777975,3.20452,20,0.3
310.0,0.0765233,-0.00781887,3.20453,20,0.3
510.0,0.0738034,-0.007771,3.20453,20,0.3
810.0,0.0711149,-0.00753828,3.20453,20,0.3
1000.0,0.0698017,-0.00734676,3.20451,20,0.3

File: Hk_IFR14500_SoC_15_09-06-2023_09-48.csv
Frequency(Hz),R(ohm),X(ohm),V(V),T(deg C),Range(Ohm)
0.01,0.185246,-0.0733553,3.22093,20,0.3
0.02,0.158478,-0.0560153,3.22545,20,0.3
0.03,0.146904,-0.0466,3.22562,20,0.3
0.05,0.1358,-0.0367366,3.22599,20,0.3
0.08,0.12786,-0.0297486,3.22614,20,0.3
0.1,0.124617,-0.0270158,3.22626,20,0.3
0.2,0.116155,-0.0203199,3.22641,20,0.3
0.3,0.112125,-0.017344,3.22642,20,0.3
0.5,0.107837,-0.0143881,3.22649,20,0.3
0.8,0.104489,-0.0123097,3.22655,20,0.3
1.0,0.103049,-0.011482,3.2266,20,0.3
2.0,0.0990342,-0.00954331,3.22664,20,0.3
3.0,0.096932,-0.00870847,3.2267,20,0.3
5.0,0.0944859,-0.00781677,3.22671,20,0.3
8.0,0.0924736,-0.00719928,3.22675,20,0.3
10.0,0.0915996,-0.0070176,3.22677,20,0.3
11.0,0.0912264,-0.00693272,3.22679,20,0.3
21.0,0.0888004,-0.00668706,3.22679,20,0.3
31.0,0.0872784,-0.00686446,3.22681,20,0.3
61.0,0.0843595,-0.00719797,3.22681,20,0.3
81.0,0.0830213,-0.00735046,3.22681,20,0.3
100.0,0.0820173,-0.00746552,3.22679,20,0.3
110.0,0.0815515,-0.00752763,3.22679,20,0.3
210.0,0.0782163,-0.00772696,3.2268,20,0.3
310.0,0.0762049,-0.00781936,3.2268,20,0.3
510.0,0.0734426,-0.00773957,3.22681,20,0.3
810.0,0.070748,-0.00749849,3.22681,20,0.3
1000.0,0.0694238,-0.00727864,3.2268,20,0.3

File: Hk_IFR14500_SoC_20_09-06-2023_08-48.csv
Frequency(Hz),R(ohm),X(ohm),V(V),T(deg C),Range(Ohm)
0.01,0.181574,-0.0700074,3.24433,20,0.3
0.02,0.155431,-0.0537554,3.24869,20,0.3
0.03,0.144146,-0.0447432,3.24884,20,0.3
0.05,0.133396,-0.0352461,3.24918,20,0.3
0.08,0.125741,-0.0285112,3.24933,20,0.3
0.1,0.122624,-0.0258818,3.24943,20,0.3
0.2,0.114527,-0.0194134,3.24959,20,0.3
0.3,0.110687,-0.0165451,3.24958,20,0.3
0.5,0.106614,-0.0136762,3.24964,20,0.3
0.8,0.103449,-0.0116554,3.24969,20,0.3
1.0,0.102095,-0.0108719,3.24978,20,0.3
2.0,0.0983352,-0.00904861,3.2498,20,0.3
3.0,0.0963516,-0.00829099,3.24985,20,0.3
5.0,0.094029,-0.00754267,3.24987,20,0.3
8.0,0.0920709,-0.00700623,3.2499,20,0.3
10.0,0.0912043,-0.0068025,3.24992,20,0.3
11.0,0.0908633,-0.00679374,3.24992,20,0.3
21.0,0.0884158,-0.00665644,3.24993,20,0.3
31.0,0.0869184,-0.00676765,3.24995,20,0.3
61.0,0.0840473,-0.00716393,3.24996,20,0.3
81.0,0.0826926,-0.00732522,3.24994,20,0.3
100.0,0.0817099,-0.00743615,3.24995,20,0.3
110.0,0.0812253,-0.00748805,3.24994,20,0.3
210.0,0.0779581,-0.00773614,3.24994,20,0.3
310.0,0.0758837,-0.00780149,3.24995,20,0.3
510.0,0.0731149,-0.00774507,3.24995,20,0.3
810.0,0.0703907,-0.00746165,3.24996,20,0.3
1000.0,0.0690932,-0.00720075,3.24996,20,0.3

File: Hk_IFR14500_SoC_25_09-06-2023_08-00.csv
Frequency(Hz),R(ohm),X(ohm),V(V),T(deg C),Range(Ohm)
0.01,0.17931,-0.0672088,3.25719,20,0.3
0.02,0.153638,-0.0519775,3.26147,20,0.3
0.03,0.142589,-0.0433224,3.26163,20,0.3
0.05,0.132103,-0.0341443,3.26197,20,0.3
0.08,0.124654,-0.0276332,3.26213,20,0.3
0.1,0.121617,-0.0250873,3.26224,20,0.3
0.2,0.113749,-0.0188079,3.2624,20,0.3
0.3,0.110016,-0.0160108,3.2624,20,0.3
0.5,0.106084,-0.0132174,3.26246,20,0.3
0.8,0.103042,-0.011263,3.26251,20,0.3
1.0,0.101749,-0.0105087,3.26256,20,0.3
2.0,0.0981418,-0.00876053,3.26263,20,0.3
3.0,0.0962255,-0.00805867,3.26265,20,0.3
5.0,0.0939853,-0.00736694,3.26269,20,0.3
8.0,0.0920727,-0.00690414,3.26272,20,0.3
10.0,0.0912059,-0.00678163,3.26274,20,0.3
11.0,0.0908402,-0.00670187,3.26275,20,0.3
21.0,0.0884388,-0.00661167,3.26276,20,0.3
31.0,0.0868883,-0.00679658,3.26276,20,0.3
61.0,0.0839662,-0.00719706,3.26278,20,0.3
81.0,0.0826279,-0.00737261,3.26277,20,0.3
100.0,0.0816133,-0.00751388,3.26275,20,0.3
110.0,0.0811239,-0.00759364,3.26277,20,0.3
210.0,0.0778069,-0.00781234,3.26275,20,0.3
310.0,0.075714,-0.00786179,3.26276,20,0.3
510.0,0.0729235,-0.00778162,3.26275,20,0.3
810.0,0.0701953,-0.00747272,3.26277,20,0.3
1000.0,0.068856,-0.0072204,3.26276,20,0.3

File: Hk_IFR14500_SoC_30_09-06-2023_06-59.csv
Frequency(Hz),R(ohm),X(ohm),V(V),T(deg C),Range(Ohm)
0.01,0.175969,-0.064785,3.27134,20,0.3
0.02,0.151031,-0.0501751,3.27575,20,0.3
0.03,0.140372,-0.0418044,3.27596,20,0.3
0.05,0.130285,-0.0329202,3.27634,20,0.3
0.08,0.123136,-0.0266244,3.2765,20,0.3
0.1,0.120227,-0.0241622,3.27663,20,0.3
0.2,0.112666,-0.0180957,3.27677,20,0.3
0.3,0.109098,-0.0154029,3.27679,20,0.3
0.5,0.105317,-0.0126831,3.27684,20,0.3
0.8,0.102409,-0.0107861,3.27691,20,0.3
1.0,0.101179,-0.0100665,3.27697,20,0.3
2.0,0.0977455,-0.00839337,3.277,20,0.3
3.0,0.0959103,-0.00773452,3.27704,20,0.3
5.0,0.0937698,-0.00711612,3.27707,20,0.3
8.0,0.0919214,-0.00673112,3.2771,20,0.3
10.0,0.0910634,-0.00660277,3.2771,20,0.3
11.0,0.0907271,-0.00657081,3.27713,20,0.3
21.0,0.0883291,-0.00655492,3.27714,20,0.3
31.0,0.0867896,-0.00671326,3.27714,20,0.3
61.0,0.0838625,-0.00719699,3.27715,20,0.3
81.0,0.08254,-0.00737838,3.27716,20,0.3
100.0,0.0815048,-0.00752074,3.27715,20,0.3
110.0,0.0810112,-0.00757728,3.27715,20,0.3
210.0,0.077692,-0.00784308,3.27716,20,0.3
310.0,0.0755856,-0.00790328,3.27714,20,0.3
510.0,0.0727765,-0.00781544,3.27715,20,0.3
810.0,0.0700104,-0.0074803,3.27716,20,0.3
1000.0,0.0686813,-0.00722375,3.27716,20,0.3

File: Hk_IFR14500_SoC_35_09-06-2023_06-11.csv
Frequency(Hz),R(ohm),X(ohm),V(V),T(deg C),Range(Ohm)
0.01,0.173264,-0.062402,3.27934,20,0.3
0.02,0.14887,-0.0486575,3.28336,20,0.3
0.03,0.138482,-0.040596,3.28347,20,0.3
0.05,0.128671,-0.0319461,3.28378,20,0.3
0.08,0.121749,-0.0257979,3.2839,20,0.3
0.1,0.118926,-0.023393,3.284,20,0.3
0.2,0.111635,-0.0174777,3.28412,20,0.3
0.3,0.108195,-0.0148496,3.28414,20,0.3
0.5,0.104577,-0.0122135,3.2842,20,0.3
0.8,0.101797,-0.0103747,3.28425,20,0.3
1.0,0.100615,-0.00966492,3.28429,20,0.3
2.0,0.0973476,-0.00805864,3.28434,20,0.3
3.0,0.0956116,-0.00745408,3.28438,20,0.3
5.0,0.0935331,-0.00688003,3.28442,20,0.3
8.0,0.0917418,-0.00655532,3.28445,20,0.3
10.0,0.0909292,-0.00646253,3.28446,20,0.3
11.0,0.0905763,-0.00643151,3.28447,20,0.3
21.0,0.0882077,-0.00644904,3.28446,20,0.3
31.0,0.0867079,-0.00662771,3.28448,20,0.3
61.0,0.0837945,-0.00711891,3.28447,20,0.3
81.0,0.0824782,-0.00732029,3.28449,20,0.3
100.0,0.0814405,-0.00746783,3.28448,20,0.3
110.0,0.0809813,-0.00752138,3.28447,20,0.3
210.0,0.0776841,-0.00782979,3.28446,20,0.3
310.0,0.0755561,-0.00788396,3.28448,20,0.3
510.0,0.0727557,-0.00779703,3.28448,20,0.3
810.0,0.0699897,-0.00747785,3.28447,20,0.3
1000.0,0.0686657,-0.00720192,3.28447,20,0.3

File: Hk_IFR14500_SoC_40_09-06-2023_05-10.csv
Frequency(Hz),R(ohm),X(ohm),V(V),T(deg C),Range(Ohm)
0.01,0.170353,-0.0605247,3.28344,20,0.3
0.02,0.146455,-0.0472403,3.28677,20,0.3
0.03,0.136342,-0.0393603,3.28667,20,0.3
0.05,0.126853,-0.0308781,3.28686,20,0.3
0.08,0.12022,-0.0248696,3.28695,20,0.3
0.1,0.117527,-0.0225223,3.28702,20,0.3
0.2,0.110559,-0.0167669,3.28712,20,0.3
0.3,0.10728,-0.0142117,3.28712,20,0.3
0.5,0.103834,-0.0116545,3.28717,20,0.3
0.8,0.101203,-0.00987348,3.28721,20,0.3
1.0,0.100094,-0.00920225,3.28725,20,0.3
2.0,0.0970005,-0.00765955,3.28729,20,0.3
3.0,0.0953613,-0.00707504,3.28732,20,0.3
5.0,0.093409,-0.00660614,3.28735,20,0.3
8.0,0.0916829,-0.00629959,3.28738,20,0.3
10.0,0.0908787,-0.00625775,3.28739,20,0.3
11.0,0.0905316,-0.00619941,3.28739,20,0.3
21.0,0.0882725,-0.00632317,3.2874,20,0.3
31.0,0.0867512,-0.00653904,3.28741,20,0.3
61.0,0.0838879,-0.00704581,3.28743,20,0.3
81.0,0.0825785,-0.00725003,3.28741,20,0.3
100.0,0.0815708,-0.00741757,3.2874,20,0.3
110.0,0.0810962,-0.0074562,3.28741,20,0.3
210.0,0.0777751,-0.00780147,3.28741,20,0.3
310.0,0.0756873,-0.00785893,3.28741,20,0.3
510.0,0.0728909,-0.00780952,3.28742,20,0.3
810.0,0.0701271,-0.00750827,3.2874,20,0.3
1000.0,0.0687854,-0.00725721,3.28741,20,0.3

File: Hk_IFR14500_SoC_45_09-06-2023_04-22.csv
Frequency(Hz),R(ohm),X(ohm),V(V),T(deg C),Range(Ohm)
0.01,0.168177,-0.0587504,3.2844,20,0.3
0.02,0.144652,-0.0460881,3.28749,20,0.3
0.03,0.134758,-0.0384,3.28735,20,0.3
0.05,0.125505,-0.0300605,3.28751,20,0.3
0.08,0.11908,-0.0241485,3.2876,20,0.3
0.1,0.116494,-0.0218602,3.28764,20,0.3
0.2,0.109778,-0.016216,3.28775,20,0.3
0.3,0.106612,-0.0137094,3.28775,20,0.3
0.5,0.103316,-0.0112187,3.2878,20,0.3
0.8,0.100802,-0.0094781,3.28784,20,0.3
1.0,0.0997296,-0.008806,3.28788,20,0.3
2.0,0.0968022,-0.00733526,3.28792,20,0.3
3.0,0.095243,-0.00679806,3.28796,20,0.3
5.0,0.0933767,-0.00635131,3.28799,20,0.3
8.0,0.0917204,-0.00613571,3.28802,20,0.3
10.0,0.0909489,-0.00608478,3.28802,20,0.3
11.0,0.0906139,-0.00605734,3.28802,20,0.3
21.0,0.0883406,-0.00621161,3.28806,20,0.3
31.0,0.0868768,-0.00647223,3.28806,20,0.3
61.0,0.0840477,-0.00699766,3.28806,20,0.3
81.0,0.0827356,-0.007238,3.28806,20,0.3
100.0,0.0817323,-0.0073466,3.28804,20,0.3
110.0,0.0812532,-0.00742175,3.28804,20,0.3
210.0,0.0779718,-0.00774687,3.28805,20,0.3
310.0,0.0758818,-0.00786091,3.28805,20,0.3
510.0,0.0730584,-0.00782271,3.28804,20,0.3
810.0,0.0702855,-0.00753308,3.28805,20,0.3
1000.0,0.0689456,-0.00730627,3.28804,20,0.3

File: Hk_IFR14500_SoC_50_09-06-2023_03-22.csv
Frequency(Hz),R(ohm),X(ohm),V(V),T(deg C),Range(Ohm)
0.01,0.166051,-0.0577351,3.28565,20,0.3
0.02,0.142823,-0.0452712,3.28859,20,0.3
0.03,0.13312,-0.0376308,3.28844,20,0.3
0.05,0.12411,-0.0293548,3.28861,20,0.3
0.08,0.117886,-0.0234814,3.28867,20,0.3
0.1,0.11539,-0.0212219,3.28876,20,0.3
0.2,0.108932,-0.0156637,3.28883,20,0.3
0.3,0.105916,-0.0132153,3.28886,20,0.3
0.5,0.102758,-0.0107731,3.2889,20,0.3
0.8,0.100352,-0.00906559,3.28894,20,0.3
1.0,0.0993355,-0.00841924,3.28897,20,0.3
2.0,0.0965801,-0.00699909,3.28903,20,0.3
3.0,0.0951013,-0.00648994,3.28905,20,0.3
5.0,0.0933248,-0.00608642,3.28907,20,0.3
8.0,0.0917594,-0.00591895,3.2891,20,0.3
10.0,0.0910012,-0.00588961,3.28912,20,0.3
11.0,0.0906689,-0.0058674,3.28913,20,0.3
21.0,0.0884849,-0.00607079,3.28915,20,0.3
31.0,0.0870424,-0.00636054,3.28914,20,0.3
61.0,0.0842071,-0.00693024,3.28915,20,0.3
81.0,0.0828966,-0.00716168,3.28914,20,0.3
100.0,0.0819067,-0.00732048,3.28914,20,0.3
110.0,0.0814491,-0.00739546,3.28913,20,0.3
210.0,0.078175,-0.00773431,3.28914,20,0.3
310.0,0.0760744,-0.00786242,3.28914,20,0.3
510.0,0.073282,-0.00783439,3.28913,20,0.3
810.0,0.0705148,-0.00757546,3.28914,20,0.3
1000.0,0.069137,-0.00734628,3.28914,20,0.3

File: Hk_IFR14500_SoC_55_09-06-2023_02-34.csv
Frequency(Hz),R(ohm),X(ohm),V(V),T(deg C),Range(Ohm)
0.01,0.16442,-0.0575485,3.28708,20,0.3
0.02,0.141389,-0.0450272,3.29001,20,0.3
0.03,0.131807,-0.0373141,3.28989,20,0.3
0.05,0.122986,-0.0289704,3.29007,20,0.3
0.08,0.116932,-0.0230934,3.29016,20,0.3
0.1,0.114507,-0.0208322,3.29025,20,0.3
0.2,0.108259,-0.0152862,3.29036,20,0.3
0.3,0.105338,-0.0128615,3.29036,20,0.3
0.5,0.102294,-0.0104549,3.29042,20,0.3
0.8,0.0999844,-0.00876177,3.29046,20,0.3
1.0,0.0990187,-0.00812517,3.2905,20,0.3
2.0,0.0963708,-0.00674051,3.29055,20,0.3
3.0,0.0949624,-0.00623537,3.29059,20,0.3
5.0,0.0932881,-0.00587301,3.2906,20,0.3
8.0,0.0917355,-0.00573715,3.29062,20,0.3
10.0,0.0910365,-0.0057447,3.29064,20,0.3
11.0,0.0907245,-0.00573107,3.29064,20,0.3
21.0,0.0885413,-0.00597596,3.29066,20,0.3
31.0,0.0871728,-0.00626779,3.29068,20,0.3
61.0,0.0843543,-0.00685152,3.29067,20,0.3
81.0,0.083067,-0.00710715,3.29066,20,0.3
100.0,0.0820378,-0.007274,3.29066,20,0.3
110.0,0.0815844,-0.00732651,3.29066,20,0.3
210.0,0.0783092,-0.00772645,3.29065,20,0.3
310.0,0.0762355,-0.00786795,3.29065,20,0.3
510.0,0.0734312,-0.00783856,3.29064,20,0.3
810.0,0.0706764,-0.0076111,3.29064,20,0.3
1000.0,0.0693139,-0.00737964,3.29066,20,0.3

File: Hk_IFR14500_SoC_60_09-06-2023_01-33.csv
Frequency(Hz),R(ohm),X(ohm),V(V),T(deg C),Range(Ohm)
0.01,0.164154,-0.0609719,3.29227,20,0.3
0.02,0.14064,-0.046768,3.29559,20,0.3
0.03,0.130997,-0.0384029,3.29571,20,0.3
0.05,0.122176,-0.0295176,3.296,20,0.3
0.08,0.116161,-0.0233422,3.29619,20,0.3
0.1,0.113776,-0.0209791,3.2963,20,0.3
0.2,0.10762,-0.015244,3.29644,20,0.3
0.3,0.104759,-0.0127597,3.29647,20,0.3
0.5,0.101788,-0.0102966,3.29653,20,0.3
0.8,0.0995468,-0.00860216,3.29658,20,0.3
1.0,0.0986098,-0.0079594,3.29665,20,0.3
2.0,0.0960576,-0.00653866,3.29667,20,0.3
3.0,0.0947277,-0.00605427,3.29671,20,0.3
5.0,0.0931073,-0.00568935,3.29673,20,0.3
8.0,0.0916427,-0.00557909,3.29674,20,0.3
10.0,0.0909308,-0.00556833,3.29676,20,0.3
11.0,0.0906209,-0.00558312,3.29678,20,0.3
21.0,0.0885112,-0.00587573,3.29677,20,0.3
31.0,0.0871255,-0.0061475,3.29679,20,0.3
61.0,0.0843916,-0.00679327,3.29681,20,0.3
81.0,0.0830846,-0.00703212,3.29679,20,0.3
100.0,0.0820842,-0.00720558,3.29678,20,0.3
110.0,0.081673,-0.00727282,3.29679,20,0.3
210.0,0.0783969,-0.00766971,3.2968,20,0.3
310.0,0.0763252,-0.00783187,3.2968,20,0.3
510.0,0.0735527,-0.00783772,3.2968,20,0.3
810.0,0.0707514,-0.00761045,3.29677,20,0.3
1000.0,0.0693915,-0.00739073,3.29679,20,0.3

File: Hk_IFR14500_SoC_65_09-06-2023_00-45.csv
Frequency(Hz),R(ohm),X(ohm),V(V),T(deg C),Range(Ohm)
0.01,0.165504,-0.065486,3.30227,20,0.3
0.02,0.141165,-0.0494623,3.30712,20,0.3
0.03,0.13123,-0.0403634,3.30786,20,0.3
0.05,0.122169,-0.0308323,3.30853,20,0.3
0.08,0.116005,-0.0242271,3.30894,20,0.3
0.1,0.113577,-0.0217124,3.3092,20,0.3
0.2,0.107318,-0.0156412,3.30944,20,0.3
0.3,0.104435,-0.0130286,3.30952,20,0.3
0.5,0.101446,-0.010439,3.30961,20,0.3
0.8,0.0992025,-0.00866535,3.3097,20,0.3
1.0,0.0982763,-0.0079908,3.30978,20,0.3
2.0,0.095749,-0.00650757,3.30981,20,0.3
3.0,0.0944374,-0.00599168,3.30984,20,0.3
5.0,0.0928536,-0.00563712,3.30989,20,0.3
8.0,0.0913992,-0.00547177,3.30991,20,0.3
10.0,0.0907393,-0.00550206,3.30994,20,0.3
11.0,0.0904247,-0.00547229,3.30993,20,0.3
21.0,0.0883649,-0.0057878,3.30994,20,0.3
31.0,0.0869987,-0.006062,3.30996,20,0.3
61.0,0.084266,-0.00670946,3.30996,20,0.3
81.0,0.0830102,-0.00694335,3.30996,20,0.3
100.0,0.0820343,-0.00712231,3.30994,20,0.3
110.0,0.0816026,-0.00720136,3.30996,20,0.3
210.0,0.0783805,-0.0076031,3.30997,20,0.3
310.0,0.0763139,-0.00776768,3.30997,20,0.3
510.0,0.0735297,-0.00780671,3.30996,20,0.3
810.0,0.070757,-0.00760539,3.30997,20,0.3
1000.0,0.0694051,-0.00739052,3.30996,20,0.3

File: Hk_IFR14500_SoC_70_08-06-2023_23-44.csv
Frequency(Hz),R(ohm),X(ohm),V(V),T(deg C),Range(Ohm)
0.01,0.165056,-0.0662552,3.31695,20,0.3
0.02,0.140309,-0.0494126,3.32181,20,0.3
0.03,0.130336,-0.0401352,3.32235,20,0.3
0.05,0.121303,-0.0305513,3.32289,20,0.3
0.08,0.115217,-0.02397,3.32318,20,0.3
0.1,0.112811,-0.0214638,3.32338,20,0.3
0.2,0.106636,-0.0154291,3.32357,20,0.3
0.3,0.103797,-0.01284,3.32363,20,0.3
0.5,0.100854,-0.0102873,3.32372,20,0.3
0.8,0.0986518,-0.00853624,3.32378,20,0.3
1.0,0.0977305,-0.00787037,3.32383,20,0.3
2.0,0.0952444,-0.00639065,3.32388,20,0.3
3.0,0.0939668,-0.00588322,3.32391,20,0.3
5.0,0.0924272,-0.00549645,3.32395,20,0.3
8.0,0.0910161,-0.00535706,3.32397,20,0.3
10.0,0.0903473,-0.00537501,3.32399,20,0.3
11.0,0.0900609,-0.00540126,3.32399,20,0.3
21.0,0.0880511,-0.00568643,3.324,20,0.3
31.0,0.0867044,-0.00593603,3.32401,20,0.3
61.0,0.0840145,-0.00657523,3.32403,20,0.3
81.0,0.0827977,-0.00680456,3.32402,20,0.3
100.0,0.0818382,-0.00699669,3.32402,20,0.3
110.0,0.0813927,-0.00705702,3.32403,20,0.3
210.0,0.078287,-0.00748334,3.324,20,0.3
310.0,0.07623,-0.0076757,3.324,20,0.3
510.0,0.0734756,-0.0077385,3.324,20,0.3
810.0,0.070693,-0.00752864,3.324,20,0.3
1000.0,0.069355,-0.00733619,3.32401,20,0.3

File: Hk_IFR14500_SoC_75_08-06-2023_22-56.csv
Frequency(Hz),R(ohm),X(ohm),V(V),T(deg C),Range(Ohm)
0.01,0.161914,-0.0618036,3.32216,20,0.3
0.02,0.137984,-0.0467299,3.32547,20,0.3
0.03,0.12838,-0.0381042,3.32552,20,0.3
0.05,0.119717,-0.0290795,3.3258,20,0.3
0.08,0.113907,-0.0228313,3.32593,20,0.3
0.1,0.111605,-0.0204532,3.32606,20,0.3
0.2,0.105721,-0.0147427,3.32619,20,0.3
0.3,0.103006,-0.0122835,3.32622,20,0.3
0.5,0.100165,-0.00985352,3.32628,20,0.3
0.8,0.0980565,-0.00819479,3.32633,20,0.3
1.0,0.097174,-0.00755087,3.32637,20,0.3
2.0,0.0947786,-0.00614948,3.32639,20,0.3
3.0,0.0935419,-0.00565096,3.32644,20,0.3
5.0,0.0920535,-0.0053077,3.32646,20,0.3
8.0,0.0907059,-0.00518569,3.32648,20,0.3
10.0,0.0900772,-0.00522622,3.3265,20,0.3
11.0,0.0898051,-0.00526773,3.32651,20,0.3
21.0,0.0878105,-0.00550897,3.32652,20,0.3
31.0,0.0864898,-0.0058639,3.32653,20,0.3
61.0,0.0838771,-0.00647148,3.32653,20,0.3
81.0,0.0826377,-0.00672214,3.32652,20,0.3
100.0,0.0817118,-0.00691065,3.32653,20,0.3
110.0,0.0812741,-0.00699259,3.32654,20,0.3
210.0,0.0781539,-0.00744054,3.32652,20,0.3
310.0,0.0761274,-0.0076352,3.32652,20,0.3
510.0,0.0733983,-0.00767991,3.32653,20,0.3
810.0,0.070639,-0.00751215,3.32652,20,0.3
1000.0,0.0692776,-0.0072975,3.32652,20,0.3

File: Hk_IFR14500_SoC_80_08-06-2023_21-56.csv
Frequency(Hz),R(ohm),X(ohm),V(V),T(deg C),Range(Ohm)
0.01,0.15835,-0.0583502,3.32394,20,0.3
0.02,0.135248,-0.0444875,3.32661,20,0.3
0.03,0.126008,-0.0363055,3.3265,20,0.3
0.05,0.117733,-0.0276846,3.32669,20,0.3
0.08,0.11221,-0.0217143,3.3268,20,0.3
0.1,0.110034,-0.0194397,3.32688,20,0.3
0.2,0.104462,-0.0139977,3.32699,20,0.3
0.3,0.101886,-0.011659,3.32701,20,0.3
0.5,0.0992025,-0.00936135,3.32707,20,0.3
0.8,0.0971874,-0.00777211,3.32712,20,0.3
1.0,0.0963545,-0.00717382,3.32716,20,0.3
2.0,0.0940932,-0.0058406,3.32718,20,0.3
3.0,0.0929361,-0.00538915,3.32722,20,0.3
5.0,0.091521,-0.00506053,3.32726,20,0.3
8.0,0.0902286,-0.00499388,3.32727,20,0.3
10.0,0.0896454,-0.00500575,3.32729,20,0.3
11.0,0.0893417,-0.00501962,3.32729,20,0.3
21.0,0.0874412,-0.00535384,3.32729,20,0.3
31.0,0.0861649,-0.00565698,3.32729,20,0.3
61.0,0.0836112,-0.00636475,3.32731,20,0.3
81.0,0.0824018,-0.00664114,3.3273,20,0.3
100.0,0.0814768,-0.0068142,3.3273,20,0.3
110.0,0.0810641,-0.00688725,3.32729,20,0.3
210.0,0.0779647,-0.00734474,3.32729,20,0.3
310.0,0.075957,-0.0075554,3.3273,20,0.3
510.0,0.0732324,-0.00764035,3.32729,20,0.3
810.0,0.0704702,-0.00746618,3.32729,20,0.3
1000.0,0.0691188,-0.00725363,3.32731,20,0.3

File: Hk_IFR14500_SoC_85_08-06-2023_21-08.csv
Frequency(Hz),R(ohm),X(ohm),V(V),T(deg C),Range(Ohm)
0.01,0.15497,-0.0553504,3.3244,20,0.3
0.02,0.132676,-0.0425324,3.32688,20,0.3
0.03,0.123782,-0.0347557,3.32673,20,0.3
0.05,0.115868,-0.0264609,3.32691,20,0.3
0.08,0.110604,-0.0207052,3.327,20,0.3
0.1,0.108555,-0.0185254,3.3271,20,0.3
0.2,0.103285,-0.0133214,3.3272,20,0.3
0.3,0.100847,-0.0110868,3.32723,20,0.3
0.5,0.0983114,-0.00891099,3.32728,20,0.3
0.8,0.0963818,-0.00737996,3.32732,20,0.3
1.0,0.0956007,-0.00682965,3.32736,20,0.3
2.0,0.093446,-0.00554967,3.32741,20,0.3
3.0,0.0923505,-0.00511372,3.3274,20,0.3
5.0,0.0910052,-0.00481524,3.32746,20,0.3
8.0,0.0897935,-0.00477888,3.32747,20,0.3
10.0,0.0892111,-0.0047934,3.32747,20,0.3
11.0,0.0889517,-0.00483646,3.32748,20,0.3
21.0,0.0871252,-0.00516047,3.3275,20,0.3
31.0,0.0858936,-0.00552386,3.3275,20,0.3
61.0,0.0833623,-0.00623668,3.3275,20,0.3
81.0,0.0822007,-0.00649442,3.32751,20,0.3
100.0,0.0812854,-0.00671854,3.32749,20,0.3
110.0,0.0808286,-0.00677281,3.3275,20,0.3
210.0,0.0777846,-0.00726973,3.32749,20,0.3
310.0,0.0757939,-0.00750505,3.32749,20,0.3
510.0,0.0730711,-0.00758949,3.32751,20,0.3
810.0,0.0703249,-0.00741507,3.32749,20,0.3
1000.0,0.0689956,-0.0072029,3.3275,20,0.3

File: Hk_IFR14500_SoC_90_08-06-2023_20-07.csv
Frequency(Hz),R(ohm),X(ohm),V(V),T(deg C),Range(Ohm)
0.01,0.150866,-0.0524853,3.32491,20,0.3
0.02,0.129485,-0.0404464,3.32723,20,0.3
0.03,0.120974,-0.0330097,3.32707,20,0.3
0.05,0.113478,-0.0250316,3.32725,20,0.3
0.08,0.108558,-0.0195121,3.32737,20,0.3
0.1,0.106643,-0.0174259,3.32745,20,0.3
0.2,0.10175,-0.0124598,3.32755,20,0.3
0.3,0.0995004,-0.0103641,3.32758,20,0.3
0.5,0.0971336,-0.00830862,3.32764,20,0.3
0.8,0.0953625,-0.00690362,3.32769,20,0.3
1.0,0.0946173,-0.00636476,3.32771,20,0.3
2.0,0.0926295,-0.00520029,3.32774,20,0.3
3.0,0.0915858,-0.00476998,3.32778,20,0.3
5.0,0.0903494,-0.00451446,3.3278,20,0.3
8.0,0.0892271,-0.00452221,3.32782,20,0.3
10.0,0.0886713,-0.00452989,3.32784,20,0.3
11.0,0.0884325,-0.00457046,3.32784,20,0.3
21.0,0.0866939,-0.00502678,3.32784,20,0.3
31.0,0.0855039,-0.00537681,3.32783,20,0.3
61.0,0.0830381,-0.00611992,3.32784,20,0.3
81.0,0.0819006,-0.0064056,3.32786,20,0.3
100.0,0.0809698,-0.00659333,3.32785,20,0.3
110.0,0.0805667,-0.00668742,3.32784,20,0.3
210.0,0.0775767,-0.00721144,3.32785,20,0.3
310.0,0.0755877,-0.00740131,3.32784,20,0.3
510.0,0.0728807,-0.00752421,3.32785,20,0.3
810.0,0.0701515,-0.00736427,3.32784,20,0.3
1000.0,0.0687881,-0.0071313,3.32784,20,0.3

File: Hk_IFR14500_SoC_95_08-06-2023_19-19.csv
Frequency(Hz),R(ohm),X(ohm),V(V),T(deg C),Range(Ohm)
0.01,0.147274,-0.0515298,3.32563,20,0.3
0.02,0.126697,-0.0393966,3.32779,20,0.3
0.03,0.118606,-0.032004,3.32769,20,0.3
0.05,0.11151,-0.024084,3.32787,20,0.3
0.08,0.106902,-0.0186587,3.32799,20,0.3
0.1,0.105114,-0.0166067,3.3281,20,0.3
0.2,0.100583,-0.011776,3.32819,20,0.3
0.3,0.098489,-0.00976112,3.32825,20,0.3
0.5,0.096314,-0.00780872,3.32828,20,0.3
0.8,0.0946572,-0.00647157,3.32834,20,0.3
1.0,0.0939749,-0.00597172,3.32838,20,0.3
2.0,0.0921037,-0.00487507,3.3284,20,0.3
3.0,0.0911559,-0.00450909,3.32843,20,0.3
5.0,0.0899887,-0.00429071,3.32845,20,0.3
8.0,0.0889344,-0.00429739,3.32847,20,0.3
10.0,0.0884097,-0.00434175,3.32848,20,0.3
11.0,0.0881812,-0.00440172,3.32848,20,0.3
21.0,0.0864825,-0.0048465,3.32849,20,0.3
31.0,0.0853549,-0.00524755,3.32849,20,0.3
61.0,0.0829142,-0.00600357,3.3285,20,0.3
81.0,0.0817774,-0.00632909,3.3285,20,0.3
100.0,0.0808752,-0.00654651,3.3285,20,0.3
110.0,0.0804614,-0.00664433,3.3285,20,0.3
210.0,0.0774484,-0.0071637,3.3285,20,0.3
310.0,0.075496,-0.00739109,3.3285,20,0.3
510.0,0.0727585,-0.00751192,3.3285,20,0.3
810.0,0.070029,-0.00735356,3.32851,20,0.3
1000.0,0.0686784,-0.00713642,3.3285,20,0.3

File: Hk_IFR14500_SoC_100_08-06-2023_18-18.csv
Frequency(Hz),R(ohm),X(ohm),V(V),T(deg C),Range(Ohm)
0.01,0.169256,-0.152288,3.38105,20,0.3
0.02,0.144786,-0.0928318,3.38443,20,0.3
0.03,0.134269,-0.070977,3.38466,20,0.3
0.05,0.123489,-0.0513758,3.38514,20,0.3
0.08,0.115467,-0.038875,3.38535,20,0.3
0.1,0.1122,-0.0342771,3.38548,20,0.3
0.2,0.103698,-0.023254,3.3857,20,0.3
0.3,0.0999034,-0.0186103,3.3857,20,0.3
0.5,0.0961411,-0.0141089,3.38579,20,0.3
0.8,0.0934878,-0.0110583,3.38587,20,0.3
1.0,0.0924296,-0.00989888,3.38593,20,0.3
2.0,0.0897646,-0.00728454,3.386,20,0.3
3.0,0.0884885,-0.00632641,3.38603,20,0.3
5.0,0.0870457,-0.00555849,3.38608,20,0.3
8.0,0.0857823,-0.00516533,3.38611,20,0.3
10.0,0.0852084,-0.00509781,3.38613,20,0.3
11.0,0.084955,-0.0050933,3.38613,20,0.3
21.0,0.0831789,-0.0052202,3.38616,20,0.3
31.0,0.0819714,-0.00543347,3.38614,20,0.3
61.0,0.0795649,-0.00600458,3.38616,20,0.3
81.0,0.0784154,-0.00620941,3.38616,20,0.3
100.0,0.0775692,-0.00639324,3.38616,20,0.3
110.0,0.0771475,-0.00647755,3.38615,20,0.3
210.0,0.074236,-0.00685712,3.38614,20,0.3
310.0,0.0723579,-0.00699142,3.38615,20,0.3
510.0,0.0697653,-0.00695687,3.38614,20,0.3
810.0,0.0671474,-0.00661232,3.38614,20,0.3
1000.0,0.0659059,-0.00631085,3.38614,20,0.3