Folder: virtualizacija-procesa/Baterija/SoC Estimation on Li-ion Batteries A New EIS-based Dataset for data-driven applications/B06/EIS measurements/Test_2/Hioki

File: Hk_IFR14500_SoC_5_29-03-2023_04-25.csv
Frequency(Hz),R(ohm),X(ohm),V(V),T(deg C),Range(Ohm)
0.01,0.170046,-0.0854825,3.1876,20,0.3
0.02,0.14127,-0.0630468,3.19256,20,0.3
0.03,0.128945,-0.0518738,3.19285,20,0.3
0.05,0.117051,-0.0407543,3.19332,20,0.3
0.08,0.108362,-0.0330182,3.19353,20,0.3
0.1,0.104772,-0.0299829,3.19366,20,0.3
0.2,0.0954029,-0.0225997,3.19383,20,0.3
0.3,0.0909216,-0.0193357,3.19382,20,0.3
0.5,0.0861201,-0.0161094,3.1939,20,0.3
0.8,0.0823098,-0.0137933,3.19397,20,0.3
1.0,0.0806745,-0.0128855,3.19403,20,0.3
2.0,0.0760977,-0.0106179,3.19409,20,0.3
3.0,0.0737469,-0.00953662,3.19414,20,0.3
5.0,0.071154,-0.00841499,3.19417,20,0.3
8.0,0.0690912,-0.00768675,3.1942,20,0.3
10.0,0.0682014,-0.0074531,3.19424,20,0.3
11.0,0.0678149,-0.00739551,3.19425,20,0.3
21.0,0.0651917,-0.00735909,3.19424,20,0.3
31.0,0.0634381,-0.00743528,3.19426,20,0.3
61.0,0.0600059,-0.00765056,3.19427,20,0.3
81.0,0.0584862,-0.00762722,3.19426,20,0.3
100.0,0.0573294,-0.0075462,3.19424,20,0.3
110.0,0.0568062,-0.00750732,3.19426,20,0.3
210.0,0.0533394,-0.00676405,3.19425,20,0.3
310.0,0.0514246,-0.00597373,3.19426,20,0.3
510.0,0.0492185,-0.00467202,3.19425,20,0.3
810.0,0.0473711,-0.00302155,3.19427,20,0.3
1000.0,0.0466102,-0.00210602,3.19425,20,0.3

File: Hk_IFR14500_SoC_10_29-03-2023_03-25.csv
Frequency(Hz),R(ohm),X(ohm),V(V),T(deg C),Range(Ohm)
0.01,0.162918,-0.0744949,3.19925,20,0.3
0.02,0.136069,-0.0564144,3.20347,20,0.3
0.03,0.124616,-0.046841,3.20362,20,0.3
0.05,0.113576,-0.037026,3.20397,20,0.3
0.08,0.105545,-0.0301351,3.20412,20,0.3
0.1,0.10221,-0.0274222,3.20423,20,0.3
0.2,0.093538,-0.020767,3.20437,20,0.3
0.3,0.0893939,-0.0178004,3.20435,20,0.3
0.5,0.0849414,-0.0148192,3.20443,20,0.3
0.8,0.0814613,-0.0127218,3.20447,20,0.3
1.0,0.0799557,-0.0118838,3.20453,20,0.3
2.0,0.0757656,-0.00988615,3.20458,20,0.3
3.0,0.0735748,-0.00899006,3.20463,20,0.3
5.0,0.0710928,-0.00806262,3.20468,20,0.3
8.0,0.0690897,-0.00746518,3.2047,20,0.3
10.0,0.0681798,-0.0072931,3.2047,20,0.3
11.0,0.0678092,-0.00724512,3.20472,20,0.3
21.0,0.0651756,-0.00720718,3.20474,20,0.3
31.0,0.0633637,-0.00746136,3.20474,20,0.3
61.0,0.059981,-0.00764927,3.20474,20,0.3
81.0,0.0584742,-0.00760779,3.20475,20,0.3
100.0,0.0573076,-0.00756595,3.20473,20,0.3
110.0,0.0567896,-0.00750304,3.20473,20,0.3
210.0,0.0532819,-0.00678017,3.20473,20,0.3
310.0,0.0513853,-0.00601572,3.20473,20,0.3
510.0,0.0491494,-0.00472446,3.20474,20,0.3
810.0,0.0472944,-0.00307182,3.20473,20,0.3
1000.0,0.0465202,-0.00214924,3.20475,20,0.3

File: Hk_IFR14500_SoC_15_29-03-2023_02-37.csv
Frequency(Hz),R(ohm),X(ohm),V(V),T(deg C),Range(Ohm)
0.01,0.158034,-0.0720069,3.22423,20,0.3
0.02,0.132243,-0.0543728,3.22833,20,0.3
0.03,0.121314,-0.0450285,3.22846,20,0.3
0.05,0.110809,-0.0354319,3.22883,20,0.3
0.08,0.103227,-0.0287289,3.22898,20,0.3
0.1,0.100103,-0.026107,3.22911,20,0.3
0.2,0.09193,-0.0196657,3.22924,20,0.3
0.3,0.0880327,-0.0168155,3.22925,20,0.3
0.5,0.0838713,-0.0139498,3.22931,20,0.3
0.8,0.080623,-0.0119484,3.22936,20,0.3
1.0,0.0792303,-0.0111633,3.22941,20,0.3
2.0,0.0753401,-0.00931436,3.22945,20,0.3
3.0,0.0732909,-0.00851548,3.2295,20,0.3
5.0,0.0709431,-0.00776926,3.22954,20,0.3
8.0,0.0689621,-0.00726767,3.22956,20,0.3
10.0,0.0680791,-0.00711155,3.22959,20,0.3
11.0,0.067704,-0.00708001,3.22958,20,0.3
21.0,0.0650962,-0.00716071,3.2296,20,0.3
31.0,0.0633537,-0.00729431,3.22961,20,0.3
61.0,0.0599558,-0.00759174,3.22961,20,0.3
81.0,0.0584519,-0.0075738,3.2296,20,0.3
100.0,0.0572864,-0.00751713,3.2296,20,0.3
110.0,0.0567687,-0.00747804,3.22961,20,0.3
210.0,0.053316,-0.00680353,3.22961,20,0.3
310.0,0.0513452,-0.00603839,3.22961,20,0.3
510.0,0.0491295,-0.00475313,3.22961,20,0.3
810.0,0.0472245,-0.00312842,3.22961,20,0.3
1000.0,0.0464391,-0.00217055,3.22962,20,0.3

File: Hk_IFR14500_SoC_20_29-03-2023_01-36.csv
Frequency(Hz),R(ohm),X(ohm),V(V),T(deg C),Range(Ohm)
0.01,0.153208,-0.0677357,3.24744,20,0.3
0.02,0.128398,-0.0514458,3.25119,20,0.3
0.03,0.117952,-0.0425958,3.25125,20,0.3
0.05,0.107989,-0.0334584,3.25154,20,0.3
0.08,0.100859,-0.0270642,3.25168,20,0.3
0.1,0.0979365,-0.0245748,3.25178,20,0.3
0.2,0.0902761,-0.0184396,3.2519,20,0.3
0.3,0.0866395,-0.0157243,3.25191,20,0.3
0.5,0.082772,-0.0129993,3.25196,20,0.3
0.8,0.0797714,-0.0110944,3.25201,20,0.3
1.0,0.0784971,-0.0103715,3.25205,20,0.3
2.0,0.0749369,-0.00869644,3.2521,20,0.3
3.0,0.0730452,-0.00803323,3.25214,20,0.3
5.0,0.0708172,-0.00740504,3.25218,20,0.3
8.0,0.0689177,-0.00701171,3.25219,20,0.3
10.0,0.0680395,-0.00694331,3.25224,20,0.3
11.0,0.0676692,-0.00691971,3.25222,20,0.3
21.0,0.0650844,-0.00703443,3.25224,20,0.3
31.0,0.0633372,-0.00727774,3.25225,20,0.3
61.0,0.0599541,-0.00754392,3.25226,20,0.3
81.0,0.0584392,-0.00757095,3.25223,20,0.3
100.0,0.057311,-0.00752302,3.25226,20,0.3
110.0,0.056783,-0.00748285,3.25223,20,0.3
210.0,0.0532773,-0.00679871,3.25223,20,0.3
310.0,0.0513202,-0.00608725,3.25225,20,0.3
510.0,0.0490628,-0.00480657,3.25225,20,0.3
810.0,0.0471634,-0.00315575,3.25223,20,0.3
1000.0,0.0463519,-0.00222327,3.25225,20,0.3

File: Hk_IFR14500_SoC_25_29-03-2023_00-48.csv
Frequency(Hz),R(ohm),X(ohm),V(V),T(deg C),Range(Ohm)
0.01,0.149535,-0.0644811,3.26038,20,0.3
0.02,0.125504,-0.0492532,3.26407,20,0.3
0.03,0.115451,-0.040818,3.26415,20,0.3
0.05,0.105908,-0.0319965,3.26445,20,0.3
0.08,0.0991031,-0.0258349,3.26459,20,0.3
0.1,0.0963291,-0.023434,3.26469,20,0.3
0.2,0.0890624,-0.0175386,3.26482,20,0.3
0.3,0.08562,-0.0149238,3.26482,20,0.3
0.5,0.0819701,-0.0123088,3.26487,20,0.3
0.8,0.0791589,-0.0104929,3.26492,20,0.3
1.0,0.0779579,-0.00979805,3.26496,20,0.3
2.0,0.0746174,-0.00822117,3.26503,20,0.3
3.0,0.0728524,-0.00763537,3.26506,20,0.3
5.0,0.0707236,-0.00709964,3.2651,20,0.3
8.0,0.0688772,-0.00682674,3.26511,20,0.3
10.0,0.0680376,-0.00677183,3.26511,20,0.3
11.0,0.0676846,-0.00679394,3.26513,20,0.3
21.0,0.0650874,-0.006988,3.26515,20,0.3
31.0,0.0633593,-0.00718085,3.26515,20,0.3
61.0,0.0599896,-0.00753158,3.26516,20,0.3
81.0,0.0584694,-0.00755551,3.26514,20,0.3
100.0,0.0573417,-0.00749426,3.26515,20,0.3
110.0,0.0568393,-0.00746901,3.26514,20,0.3
210.0,0.0533119,-0.00684077,3.26514,20,0.3
310.0,0.051372,-0.0061224,3.26515,20,0.3
510.0,0.0490531,-0.00484878,3.26514,20,0.3
810.0,0.0471444,-0.00321283,3.26515,20,0.3
1000.0,0.0463232,-0.00227916,3.26515,20,0.3

File: Hk_IFR14500_SoC_30_28-03-2023_23-47.csv
Frequency(Hz),R(ohm),X(ohm),V(V),T(deg C),Range(Ohm)
0.01,0.145821,-0.0619652,3.27572,20,0.3
0.02,0.12233,-0.0473557,3.27986,20,0.3
0.03,0.112603,-0.0391425,3.28011,20,0.3
0.05,0.103465,-0.030573,3.2805,20,0.3
0.08,0.0970043,-0.0245812,3.28067,20,0.3
0.1,0.0943835,-0.0222596,3.28082,20,0.3
0.2,0.0875427,-0.0165786,3.28097,20,0.3
0.3,0.084313,-0.0140632,3.28099,20,0.3
0.5,0.0809039,-0.0115724,3.28105,20,0.3
0.8,0.0782786,-0.00982255,3.28111,20,0.3
1.0,0.0771826,-0.00918008,3.28114,20,0.3
2.0,0.0741019,-0.00772368,3.2812,20,0.3
3.0,0.0724386,-0.00717244,3.28123,20,0.3
5.0,0.070455,-0.00675359,3.28126,20,0.3
8.0,0.0686819,-0.00653275,3.28128,20,0.3
10.0,0.0678699,-0.0065252,3.28131,20,0.3
11.0,0.0674992,-0.00655592,3.28131,20,0.3
21.0,0.0649735,-0.00684412,3.28132,20,0.3
31.0,0.0632765,-0.00705617,3.28132,20,0.3
61.0,0.0599619,-0.00741188,3.28134,20,0.3
81.0,0.0584505,-0.00746661,3.28132,20,0.3
100.0,0.0573376,-0.00745978,3.28132,20,0.3
110.0,0.0567835,-0.00742554,3.28132,20,0.3
210.0,0.0533205,-0.00680651,3.28132,20,0.3
310.0,0.0513534,-0.00610393,3.28132,20,0.3
510.0,0.0490469,-0.00484743,3.28132,20,0.3
810.0,0.0471078,-0.0032363,3.28133,20,0.3
1000.0,0.0463204,-0.00229163,3.28132,20,0.3

File: Hk_IFR14500_SoC_35_28-03-2023_22-59.csv
Frequency(Hz),R(ohm),X(ohm),V(V),T(deg C),Range(Ohm)
0.01,0.142923,-0.0600836,3.28097,20,0.3
0.02,0.119921,-0.0460025,3.28457,20,0.3
0.03,0.110463,-0.0379864,3.28469,20,0.3
0.05,0.101641,-0.0295791,3.28502,20,0.3
0.08,0.0954391,-0.0237061,3.28515,20,0.3
0.1,0.0929383,-0.0214414,3.28526,20,0.3
0.2,0.0864214,-0.0158877,3.28538,20,0.3
0.3,0.0833476,-0.013453,3.28541,20,0.3
0.5,0.080111,-0.0110315,3.28547,20,0.3
0.8,0.0776377,-0.00935373,3.28552,20,0.3
1.0,0.0765854,-0.00870873,3.28556,20,0.3
2.0,0.0736847,-0.0073209,3.28558,20,0.3
3.0,0.0721395,-0.00686134,3.28563,20,0.3
5.0,0.0702569,-0.00649521,3.28565,20,0.3
8.0,0.0685386,-0.00634881,3.28568,20,0.3
10.0,0.0677428,-0.00636541,3.28571,20,0.3
11.0,0.0674023,-0.00641587,3.28571,20,0.3
21.0,0.0649031,-0.00667572,3.28572,20,0.3
31.0,0.0632088,-0.00696106,3.28572,20,0.3
61.0,0.059923,-0.00736528,3.28573,20,0.3
81.0,0.0584434,-0.00739492,3.28572,20,0.3
100.0,0.0573194,-0.00738317,3.28572,20,0.3
110.0,0.0568111,-0.00737476,3.28574,20,0.3
210.0,0.0533336,-0.006747,3.28572,20,0.3
310.0,0.0513848,-0.00608071,3.28573,20,0.3
510.0,0.0490768,-0.0048585,3.28573,20,0.3
810.0,0.0471346,-0.00324236,3.28572,20,0.3
1000.0,0.0462991,-0.00230407,3.28573,20,0.3

File: Hk_IFR14500_SoC_40_28-03-2023_21-59.csv
Frequency(Hz),R(ohm),X(ohm),V(V),T(deg C),Range(Ohm)
0.01,0.140264,-0.0586131,3.283,20,0.3
0.02,0.117557,-0.0448708,3.28607,20,0.3
0.03,0.108312,-0.0369672,3.28607,20,0.3
0.05,0.0997489,-0.0286589,3.28633,20,0.3
0.08,0.0938215,-0.0228789,3.28645,20,0.3
0.1,0.0914261,-0.0206567,3.28655,20,0.3
0.2,0.0852169,-0.0152297,3.28667,20,0.3
0.3,0.0822907,-0.0128542,3.28668,20,0.3
0.5,0.0792283,-0.0104972,3.28673,20,0.3
0.8,0.0769038,-0.00887379,3.28679,20,0.3
1.0,0.075924,-0.00826772,3.28683,20,0.3
2.0,0.0732029,-0.00693341,3.28686,20,0.3
3.0,0.0717593,-0.00651177,3.2869,20,0.3
5.0,0.0699744,-0.0062123,3.28693,20,0.3
8.0,0.0683246,-0.0061188,3.28694,20,0.3
10.0,0.0675665,-0.00616685,3.28696,20,0.3
11.0,0.0672283,-0.0061596,3.28696,20,0.3
21.0,0.0647883,-0.00652765,3.28699,20,0.3
31.0,0.0631601,-0.00684138,3.28697,20,0.3
61.0,0.0598789,-0.00726074,3.28697,20,0.3
81.0,0.0583994,-0.00732869,3.28697,20,0.3
100.0,0.0572933,-0.00731566,3.28699,20,0.3
110.0,0.0567957,-0.00730766,3.28698,20,0.3
210.0,0.0533177,-0.00673004,3.28698,20,0.3
310.0,0.0513874,-0.00604894,3.28698,20,0.3
510.0,0.04909,-0.00483372,3.28698,20,0.3
810.0,0.0471235,-0.00322186,3.28698,20,0.3
1000.0,0.0463387,-0.00228467,3.28698,20,0.3

File: Hk_IFR14500_SoC_45_28-03-2023_21-11.csv
Frequency(Hz),R(ohm),X(ohm),V(V),T(deg C),Range(Ohm)
0.01,0.138855,-0.0590498,3.28433,20,0.3
0.02,0.116126,-0.0447455,3.28717,20,0.3
0.03,0.106995,-0.0366554,3.28714,20,0.3
0.05,0.0986138,-0.0282633,3.28736,20,0.3
0.08,0.092822,-0.0224621,3.28749,20,0.3
0.1,0.090499,-0.0202436,3.28756,20,0.3
0.2,0.084472,-0.0148469,3.28765,20,0.3
0.3,0.0816486,-0.0124877,3.28767,20,0.3
0.5,0.0786988,-0.0101635,3.28772,20,0.3
0.8,0.0764722,-0.00857676,3.28777,20,0.3
1.0,0.0755305,-0.0079705,3.28782,20,0.3
2.0,0.0729385,-0.00669711,3.28786,20,0.3
3.0,0.0715441,-0.00627185,3.28788,20,0.3
5.0,0.0698338,-0.00599957,3.28791,20,0.3
8.0,0.068273,-0.00597517,3.28791,20,0.3
10.0,0.0675111,-0.00600715,3.28794,20,0.3
11.0,0.0671903,-0.00606173,3.28795,20,0.3
21.0,0.0647721,-0.00649276,3.28795,20,0.3
31.0,0.063134,-0.00677174,3.28796,20,0.3
61.0,0.0598954,-0.0072304,3.28797,20,0.3
81.0,0.0584112,-0.00730414,3.28797,20,0.3
100.0,0.0573088,-0.00727206,3.28795,20,0.3
110.0,0.0567838,-0.00728226,3.28795,20,0.3
210.0,0.0533546,-0.00672136,3.28795,20,0.3
310.0,0.0514158,-0.00605267,3.28796,20,0.3
510.0,0.0491293,-0.00483909,3.28796,20,0.3
810.0,0.0471827,-0.0032258,3.28796,20,0.3
1000.0,0.0463698,-0.00229592,3.28796,20,0.3

File: Hk_IFR14500_SoC_50_28-03-2023_20-10.csv
Frequency(Hz),R(ohm),X(ohm),V(V),T(deg C),Range(Ohm)
0.01,0.136489,-0.0577704,3.28571,20,0.3
0.02,0.114255,-0.0437144,3.28838,20,0.3
0.03,0.105363,-0.0357391,3.28827,20,0.3
0.05,0.0972344,-0.0275002,3.28847,20,0.3
0.08,0.0916483,-0.0218043,3.28855,20,0.3
0.1,0.0894109,-0.0196403,3.28864,20,0.3
0.2,0.0836001,-0.014363,3.28872,20,0.3
0.3,0.0808787,-0.0120746,3.28876,20,0.3
0.5,0.078041,-0.00980948,3.2888,20,0.3
0.8,0.0759018,-0.00824796,3.28883,20,0.3
1.0,0.0749936,-0.00766427,3.28887,20,0.3
2.0,0.0725221,-0.00642429,3.2889,20,0.3
3.0,0.0712015,-0.00602731,3.28895,20,0.3
5.0,0.0695767,-0.00580826,3.28897,20,0.3
8.0,0.068059,-0.00582504,3.28899,20,0.3
10.0,0.0673074,-0.00586094,3.289,20,0.3
11.0,0.0669878,-0.00590738,3.28901,20,0.3
21.0,0.0646389,-0.00630846,3.28902,20,0.3
31.0,0.0630155,-0.00666818,3.28902,20,0.3
61.0,0.0598189,-0.00712644,3.28902,20,0.3
81.0,0.0583697,-0.00720882,3.28903,20,0.3
100.0,0.0572849,-0.00718117,3.28904,20,0.3
110.0,0.0567528,-0.00720288,3.28903,20,0.3
210.0,0.05336,-0.00666709,3.28902,20,0.3
310.0,0.051417,-0.00599621,3.28902,20,0.3
510.0,0.0491299,-0.00481015,3.28902,20,0.3
810.0,0.047197,-0.00319462,3.28901,20,0.3
1000.0,0.0463651,-0.0022771,3.28902,20,0.3

File: Hk_IFR14500_SoC_55_28-03-2023_19-22.csv
Frequency(Hz),R(ohm),X(ohm),V(V),T(deg C),Range(Ohm)
0.01,0.133665,-0.0555119,3.2864,20,0.3
0.02,0.112157,-0.0424124,3.28917,20,0.3
0.03,0.10355,-0.0347649,3.28916,20,0.3
0.05,0.0956922,-0.0267228,3.28941,20,0.3
0.08,0.0903017,-0.0211563,3.28954,20,0.3
0.1,0.0881493,-0.01904,3.28964,20,0.3
0.2,0.082569,-0.0138909,3.28976,20,0.3
0.3,0.0799522,-0.0116563,3.28977,20,0.3
0.5,0.0772375,-0.00946096,3.28984,20,0.3
0.8,0.0751705,-0.00792729,3.28987,20,0.3
1.0,0.0743134,-0.00737136,3.28991,20,0.3
2.0,0.0719491,-0.00617493,3.28994,20,0.3
3.0,0.0707,-0.00579591,3.28997,20,0.3
5.0,0.0691421,-0.00559756,3.29,20,0.3
8.0,0.0676758,-0.00558305,3.29,20,0.3
10.0,0.0669822,-0.00569415,3.29004,20,0.3
11.0,0.0666615,-0.00573236,3.29003,20,0.3
21.0,0.0643741,-0.00618724,3.29004,20,0.3
31.0,0.0627791,-0.00651041,3.29006,20,0.3
61.0,0.0596627,-0.00698779,3.29007,20,0.3
81.0,0.0582277,-0.00707344,3.29005,20,0.3
100.0,0.0571431,-0.0070795,3.29006,20,0.3
110.0,0.056654,-0.00706719,3.29005,20,0.3
210.0,0.0533145,-0.00658915,3.29005,20,0.3
310.0,0.0513582,-0.00593177,3.29004,20,0.3
510.0,0.0491095,-0.00475319,3.29006,20,0.3
810.0,0.0471527,-0.00317803,3.29005,20,0.3
1000.0,0.046361,-0.00224163,3.29006,20,0.3

File: Hk_IFR14500_SoC_60_28-03-2023_18-21.csv
Frequency(Hz),R(ohm),X(ohm),V(V),T(deg C),Range(Ohm)
0.01,0.132157,-0.0582395,3.29117,20,0.3
0.02,0.110478,-0.0436258,3.29432,20,0.3
0.03,0.101899,-0.0354211,3.29459,20,0.3
0.05,0.09413,-0.0269191,3.29498,20,0.3
0.08,0.0888633,-0.0211115,3.29519,20,0.3
0.1,0.0867812,-0.01892,3.29535,20,0.3
0.2,0.08138,-0.0136573,3.2955,20,0.3
0.3,0.0788847,-0.0114088,3.29554,20,0.3
0.5,0.0762558,-0.00919704,3.29561,20,0.3
0.8,0.0742723,-0.00768101,3.29566,20,0.3
1.0,0.0734486,-0.00711395,3.29569,20,0.3
2.0,0.0712053,-0.00589395,3.29574,20,0.3
3.0,0.0700161,-0.00554186,3.29579,20,0.3
5.0,0.0685357,-0.00532322,3.29581,20,0.3
8.0,0.0671663,-0.00537891,3.29581,20,0.3
10.0,0.0664654,-0.00542397,3.29583,20,0.3
11.0,0.0661806,-0.00549114,3.29584,20,0.3
21.0,0.0639877,-0.00595086,3.29584,20,0.3
31.0,0.0624375,-0.00628799,3.29585,20,0.3
61.0,0.0594008,-0.00683838,3.29588,20,0.3
81.0,0.0580238,-0.00690006,3.29585,20,0.3
100.0,0.0569673,-0.00692607,3.29587,20,0.3
110.0,0.0564807,-0.00687525,3.29584,20,0.3
210.0,0.053216,-0.00644057,3.29587,20,0.3
310.0,0.0512983,-0.00584645,3.29586,20,0.3
510.0,0.0490302,-0.00467008,3.29586,20,0.3
810.0,0.0471092,-0.00311884,3.29586,20,0.3
1000.0,0.0462971,-0.00220336,3.29586,20,0.3

File: Hk_IFR14500_SoC_65_28-03-2023_17-33.csv
Frequency(Hz),R(ohm),X(ohm),V(V),T(deg C),Range(Ohm)
0.01,0.133363,-0.0648033,3.30428,20,0.3
0.02,0.110953,-0.0473214,3.3098,20,0.3
0.03,0.102165,-0.0380368,3.31105,20,0.3
0.05,0.0942015,-0.0285977,3.31198,20,0.3
0.08,0.0888156,-0.0222176,3.31252,20,0.3
0.1,0.0867031,-0.0198251,3.31287,20,0.3
0.2,0.0812223,-0.0141327,3.31315,20,0.3
0.3,0.0786919,-0.0117209,3.31329,20,0.3
0.5,0.0760545,-0.00938266,3.31341,20,0.3
0.8,0.0740765,-0.0077924,3.31347,20,0.3
1.0,0.0732542,-0.00719996,3.31354,20,0.3
2.0,0.0710198,-0.00592433,3.3136,20,0.3
3.0,0.0698426,-0.0055227,3.31364,20,0.3
5.0,0.0683883,-0.00530022,3.31367,20,0.3
8.0,0.0670304,-0.00532215,3.31371,20,0.3
10.0,0.066365,-0.00542021,3.31373,20,0.3
11.0,0.06606,-0.0054595,3.31373,20,0.3
21.0,0.0638897,-0.00591834,3.31373,20,0.3
31.0,0.0623945,-0.00626177,3.31373,20,0.3
61.0,0.0593556,-0.00673678,3.31375,20,0.3
81.0,0.0579836,-0.00685029,3.31375,20,0.3
100.0,0.0569494,-0.00687275,3.31374,20,0.3
110.0,0.0564633,-0.00685414,3.31376,20,0.3
210.0,0.0531779,-0.00641089,3.31375,20,0.3
310.0,0.0513006,-0.00581451,3.31376,20,0.3
510.0,0.0490441,-0.00467022,3.31376,20,0.3
810.0,0.0471265,-0.00312646,3.31377,20,0.3
1000.0,0.046287,-0.00222467,3.31376,20,0.3

File: Hk_IFR14500_SoC_70_28-03-2023_16-32.csv
Frequency(Hz),R(ohm),X(ohm),V(V),T(deg C),Range(Ohm)
0.01,0.131907,-0.0619718,3.32009,20,0.3
0.02,0.109425,-0.0451681,3.32401,20,0.3
0.03,0.100723,-0.0362472,3.32442,20,0.3
0.05,0.0929692,-0.0272723,3.32487,20,0.3
0.08,0.0877662,-0.0212129,3.32513,20,0.3
0.1,0.0857129,-0.0189319,3.3253,20,0.3
0.2,0.0804471,-0.013532,3.32546,20,0.3
0.3,0.0780044,-0.0112498,3.3255,20,0.3
0.5,0.0754641,-0.00902199,3.32557,20,0.3
0.8,0.07354,-0.00749442,3.32562,20,0.3
1.0,0.0727443,-0.00692746,3.32568,20,0.3
2.0,0.0705917,-0.00571111,3.32572,20,0.3
3.0,0.0694354,-0.0052932,3.32575,20,0.3
5.0,0.0680592,-0.00511402,3.32578,20,0.3
8.0,0.06675,-0.0051777,3.32579,20,0.3
10.0,0.066096,-0.00524182,3.3258,20,0.3
11.0,0.0658355,-0.00529048,3.32581,20,0.3
21.0,0.0637019,-0.00577806,3.32582,20,0.3
31.0,0.0622199,-0.00612257,3.32582,20,0.3
61.0,0.0592541,-0.00665692,3.32583,20,0.3
81.0,0.0579135,-0.00676959,3.32583,20,0.3
100.0,0.0568743,-0.0067793,3.32583,20,0.3
110.0,0.0563923,-0.00678091,3.32582,20,0.3
210.0,0.053147,-0.00637328,3.32582,20,0.3
310.0,0.0512696,-0.00578509,3.32582,20,0.3
510.0,0.048986,-0.0046565,3.32583,20,0.3
810.0,0.0470555,-0.00312287,3.32582,20,0.3
1000.0,0.04623,-0.00219748,3.32582,20,0.3

File: Hk_IFR14500_SoC_75_28-03-2023_15-44.csv
Frequency(Hz),R(ohm),X(ohm),V(V),T(deg C),Range(Ohm)
0.01,0.130286,-0.0590632,3.32258,20,0.3
0.02,0.108184,-0.0434387,3.32548,20,0.3
0.03,0.0996673,-0.0349182,3.3256,20,0.3
0.05,0.0921355,-0.0262761,3.32593,20,0.3
0.08,0.0871213,-0.0204441,3.32609,20,0.3
0.1,0.0851365,-0.0182482,3.32623,20,0.3
0.2,0.0800668,-0.0130409,3.32636,20,0.3
0.3,0.0777089,-0.0108418,3.32641,20,0.3
0.5,0.0752528,-0.00869278,3.32647,20,0.3
0.8,0.073413,-0.00723868,3.32653,20,0.3
1.0,0.0726492,-0.00669173,3.32655,20,0.3
2.0,0.070558,-0.00551612,3.3266,20,0.3
3.0,0.0694676,-0.00516347,3.32662,20,0.3
5.0,0.0681248,-0.00498661,3.32665,20,0.3
8.0,0.0668508,-0.00507495,3.32666,20,0.3
10.0,0.0662169,-0.00516795,3.32668,20,0.3
11.0,0.0659294,-0.00522043,3.32669,20,0.3
21.0,0.0638147,-0.00577089,3.32669,20,0.3
31.0,0.0623495,-0.00617262,3.3267,20,0.3
61.0,0.0593821,-0.00666877,3.32671,20,0.3
81.0,0.0580392,-0.00678578,3.3267,20,0.3
100.0,0.0569613,-0.00683306,3.32669,20,0.3
110.0,0.0565082,-0.00683246,3.3267,20,0.3
210.0,0.0531799,-0.00643773,3.32669,20,0.3
310.0,0.0512955,-0.00584815,3.32671,20,0.3
510.0,0.049029,-0.00471522,3.32671,20,0.3
810.0,0.0470692,-0.00318454,3.3267,20,0.3
1000.0,0.0462632,-0.00224497,3.32672,20,0.3

File: Hk_IFR14500_SoC_80_28-03-2023_14-44.csv
Frequency(Hz),R(ohm),X(ohm),V(V),T(deg C),Range(Ohm)
0.01,0.128233,-0.0566503,3.32378,20,0.3
0.02,0.106696,-0.041821,3.32627,20,0.3
0.03,0.0984832,-0.0336229,3.32627,20,0.3
0.05,0.0912453,-0.025269,3.32651,20,0.3
0.08,0.0864499,-0.0196278,3.32668,20,0.3
0.1,0.0845639,-0.0175109,3.32679,20,0.3
0.2,0.0797158,-0.0124991,3.32689,20,0.3
0.3,0.0774734,-0.0103858,3.32693,20,0.3
0.5,0.0751275,-0.00833918,3.32698,20,0.3
0.8,0.073371,-0.00694324,3.32702,20,0.3
1.0,0.0726289,-0.00642148,3.32705,20,0.3
2.0,0.0706338,-0.00532095,3.3271,20,0.3
3.0,0.0695734,-0.00498559,3.32712,20,0.3
5.0,0.068274,-0.0048459,3.32713,20,0.3
8.0,0.0670413,-0.00495532,3.32717,20,0.3
10.0,0.0664341,-0.00508835,3.32717,20,0.3
11.0,0.0661261,-0.00513577,3.32718,20,0.3
21.0,0.0640529,-0.00569893,3.32719,20,0.3
31.0,0.0625995,-0.00615961,3.32718,20,0.3
61.0,0.059567,-0.00673648,3.32721,20,0.3
81.0,0.0581961,-0.00685497,3.3272,20,0.3
100.0,0.0571393,-0.00689498,3.32721,20,0.3
110.0,0.056655,-0.00690321,3.3272,20,0.3
210.0,0.0533007,-0.00650642,3.32719,20,0.3
310.0,0.0513867,-0.00593573,3.32719,20,0.3
510.0,0.0490994,-0.00479847,3.3272,20,0.3
810.0,0.0471246,-0.00323507,3.32719,20,0.3
1000.0,0.0462949,-0.00232613,3.3272,20,0.3

File: Hk_IFR14500_SoC_85_28-03-2023_13-56.csv
Frequency(Hz),R(ohm),X(ohm),V(V),T(deg C),Range(Ohm)
0.01,0.125997,-0.0540106,3.32406,20,0.3
0.02,0.105027,-0.0400905,3.32641,20,0.3
0.03,0.0970623,-0.0322318,3.32641,20,0.3
0.05,0.0900874,-0.0241883,3.32665,20,0.3
0.08,0.0854886,-0.0187543,3.32679,20,0.3
0.1,0.0836957,-0.016716,3.32691,20,0.3
0.2,0.0790932,-0.0119151,3.32703,20,0.3
0.3,0.0769596,-0.00990284,3.32706,20,0.3
0.5,0.0747353,-0.00795742,3.32711,20,0.3
0.8,0.0730506,-0.0066234,3.32714,20,0.3
1.0,0.0723491,-0.00613351,3.3272,20,0.3
2.0,0.0704361,-0.00509567,3.32723,20,0.3
3.0,0.0694459,-0.00479751,3.32726,20,0.3
5.0,0.0682031,-0.00469487,3.32729,20,0.3
8.0,0.0670093,-0.00481974,3.32729,20,0.3
10.0,0.066411,-0.00496573,3.32731,20,0.3
11.0,0.0661569,-0.0050395,3.32731,20,0.3
21.0,0.0640688,-0.00566737,3.32733,20,0.3
31.0,0.0626003,-0.00610357,3.32731,20,0.3
61.0,0.0596179,-0.00671558,3.32733,20,0.3
81.0,0.0582518,-0.00685532,3.32733,20,0.3
100.0,0.0571955,-0.00688707,3.32731,20,0.3
110.0,0.0567106,-0.00688875,3.32732,20,0.3
210.0,0.0533763,-0.00652286,3.32732,20,0.3
310.0,0.0514276,-0.00596194,3.32732,20,0.3
510.0,0.049103,-0.0048258,3.32733,20,0.3
810.0,0.0471082,-0.00327136,3.32732,20,0.3
1000.0,0.0462584,-0.0023528,3.32732,20,0.3

File: Hk_IFR14500_SoC_90_28-03-2023_12-55.csv
Frequency(Hz),R(ohm),X(ohm),V(V),T(deg C),Range(Ohm)
0.01,0.124886,-0.0522391,3.32421,20,0.3
0.02,0.104373,-0.038686,3.32645,20,0.3
0.03,0.0966063,-0.0310372,3.32646,20,0.3
0.05,0.0898791,-0.0232366,3.32672,20,0.3
0.08,0.0854779,-0.0179699,3.32687,20,0.3
0.1,0.0837402,-0.0159949,3.327,20,0.3
0.2,0.0793672,-0.0113716,3.3271,20,0.3
0.3,0.077348,-0.00944367,3.32714,20,0.3
0.5,0.0752337,-0.00759537,3.3272,20,0.3
0.8,0.073628,-0.00635589,3.32723,20,0.3
1.0,0.0729471,-0.00587578,3.32728,20,0.3
2.0,0.0711299,-0.00495884,3.32731,20,0.3
3.0,0.0701525,-0.00469489,3.32735,20,0.3
5.0,0.0689459,-0.00463204,3.32737,20,0.3
8.0,0.0677591,-0.00483629,3.32736,20,0.3
10.0,0.0671679,-0.00498999,3.32739,20,0.3
11.0,0.0668904,-0.00506087,3.32739,20,0.3
21.0,0.0648164,-0.00579823,3.3274,20,0.3
31.0,0.0632864,-0.00627532,3.32741,20,0.3
61.0,0.0601664,-0.00692308,3.32741,20,0.3
81.0,0.0587201,-0.00711916,3.32739,20,0.3
100.0,0.0576332,-0.00715881,3.32741,20,0.3
110.0,0.0571354,-0.00714291,3.32739,20,0.3
210.0,0.053637,-0.0067471,3.3274,20,0.3
310.0,0.0516724,-0.0061727,3.3274,20,0.3
510.0,0.0492845,-0.00501183,3.3274,20,0.3
810.0,0.0472553,-0.00341032,3.3274,20,0.3
1000.0,0.0463977,-0.0024831,3.3274,20,0.3

File: Hk_IFR14500_SoC_95_28-03-2023_12-07.csv
Frequency(Hz),R(ohm),X(ohm),V(V),T(deg C),Range(Ohm)
0.01,0.122807,-0.051319,3.32471,20,0.3
0.02,0.103295,-0.0378455,3.32679,20,0.3
0.03,0.0959879,-0.0302941,3.32683,20,0.3
0.05,0.0896515,-0.0225646,3.32709,20,0.3
0.08,0.0855005,-0.0173711,3.32727,20,0.3
0.1,0.0838878,-0.0154391,3.32739,20,0.3
0.2,0.0797798,-0.010903,3.32752,20,0.3
0.3,0.0778839,-0.00904586,3.32755,20,0.3
0.5,0.0758881,-0.00727146,3.32762,20,0.3
0.8,0.0743726,-0.00608974,3.32766,20,0.3
1.0,0.0737309,-0.00566685,3.3277,20,0.3
2.0,0.0719723,-0.0048042,3.32772,20,0.3
3.0,0.0710334,-0.00461213,3.32776,20,0.3
5.0,0.0698552,-0.00462189,3.32776,20,0.3
8.0,0.068665,-0.00486978,3.32778,20,0.3
10.0,0.0680481,-0.00508039,3.32779,20,0.3
11.0,0.0677855,-0.00515792,3.32779,20,0.3
21.0,0.0656266,-0.00597779,3.32781,20,0.3
31.0,0.0640308,-0.00650219,3.32782,20,0.3
61.0,0.0607748,-0.00722898,3.32782,20,0.3
81.0,0.0592698,-0.00740117,3.32782,20,0.3
100.0,0.0581216,-0.00743759,3.32781,20,0.3
110.0,0.0575805,-0.00744424,3.32781,20,0.3
210.0,0.0540209,-0.0069971,3.32782,20,0.3
310.0,0.0519227,-0.00640597,3.32781,20,0.3
510.0,0.0494824,-0.00519417,3.32781,20,0.3
810.0,0.0473909,-0.00358908,3.32781,20,0.3
1000.0,0.046516,-0.00264086,3.3278,20,0.3

File: Hk_IFR14500_SoC_100_28-03-2023_11-06.csv
Frequency(Hz),R(ohm),X(ohm),V(V),T(deg C),Range(Ohm)
0.01,0.130516,-0.107408,3.35735,20,0.3
0.02,0.110592,-0.0658691,3.35927,20,0.3
0.03,0.102861,-0.0499548,3.35941,20,0.3
0.05,0.0954391,-0.0357449,3.35978,20,0.3
0.08,0.0901261,-0.0268349,3.35996,20,0.3
0.1,0.0879698,-0.0236101,3.3601,20,0.3
0.2,0.0823123,-0.0160926,3.36024,20,0.3
0.3,0.0797106,-0.0130136,3.36029,20,0.3
0.5,0.0770508,-0.0101018,3.36035,20,0.3
0.8,0.0751005,-0.00815259,3.36039,20,0.3
1.0,0.0742979,-0.00743997,3.36043,20,0.3
2.0,0.072175,-0.00590358,3.3605,20,0.3
3.0,0.0710845,-0.00542137,3.36052,20,0.3
5.0,0.0697577,-0.00520594,3.36054,20,0.3
8.0,0.0685054,-0.00532672,3.36056,20,0.3
10.0,0.0678492,-0.00543021,3.36058,20,0.3
11.0,0.0675683,-0.00552638,3.36058,20,0.3
21.0,0.0653322,-0.00621714,3.36059,20,0.3
31.0,0.0637331,-0.00668426,3.36059,20,0.3
61.0,0.0604326,-0.00732497,3.36061,20,0.3
81.0,0.0589221,-0.00748633,3.36059,20,0.3
100.0,0.0577547,-0.00753234,3.36059,20,0.3
110.0,0.0572426,-0.00751107,3.36059,20,0.3
210.0,0.0535987,-0.00707093,3.36059,20,0.3
310.0,0.0515398,-0.00642255,3.3606,20,0.3
510.0,0.0490742,-0.00523967,3.3606,20,0.3
810.0,0.0469898,-0.00358666,3.3606,20,0.3
1000.0,0.0460889,-0.00262545,3.3606,20,0.3