Folder: virtualizacija-procesa/Baterija/SoC Estimation on Li-ion Batteries A New EIS-based Dataset for data-driven applications/B02/EIS measurements/Test_2/Hioki

File: Hk_IFR14500_SoC_5_29-06-2023_08-19.csv
Frequency(Hz),R(ohm),X(ohm),V(V),T(deg C),Range(Ohm)
0.01,0.153369,-0.0740367,3.19138,20,0.3
0.02,0.128052,-0.0552131,3.19577,20,0.3
0.03,0.117091,-0.0454081,3.19601,20,0.3
0.05,0.10668,-0.0353467,3.19643,20,0.3
0.08,0.0993146,-0.028323,3.1966,20,0.3
0.1,0.0963217,-0.0256002,3.19674,20,0.3
0.2,0.0885621,-0.0190851,3.1969,20,0.3
0.3,0.0848525,-0.0162605,3.19693,20,0.3
0.5,0.0808659,-0.0134693,3.19699,20,0.3
0.8,0.0777252,-0.0115138,3.19705,20,0.3
1.0,0.0763737,-0.0107534,3.19711,20,0.3
2.0,0.0725572,-0.00883451,3.19716,20,0.3
3.0,0.070582,-0.00791319,3.19719,20,0.3
5.0,0.0683761,-0.00692306,3.19723,20,0.3
8.0,0.0666384,-0.0061504,3.19726,20,0.3
10.0,0.0658993,-0.00584736,3.19727,20,0.3
11.0,0.0655914,-0.00576507,3.1973,20,0.3
21.0,0.0636515,-0.00529492,3.19731,20,0.3
31.0,0.0624649,-0.00522909,3.19732,20,0.3
61.0,0.0602624,-0.00529166,3.19732,20,0.3
81.0,0.0592316,-0.00526745,3.19731,20,0.3
100.0,0.0584631,-0.00523197,3.19731,20,0.3
110.0,0.0581031,-0.00521066,3.1973,20,0.3
210.0,0.0556714,-0.00481741,3.19731,20,0.3
310.0,0.0542532,-0.00439349,3.19731,20,0.3
510.0,0.052408,-0.0034697,3.19731,20,0.3
810.0,0.0507849,-0.002132,3.19731,20,0.3
1000.0,0.050049,-0.00128594,3.19731,20,0.3

File: Hk_IFR14500_SoC_10_29-06-2023_07-18.csv
Frequency(Hz),R(ohm),X(ohm),V(V),T(deg C),Range(Ohm)
0.01,0.148492,-0.0674601,3.20228,20,0.3
0.02,0.124374,-0.051295,3.20618,20,0.3
0.03,0.113928,-0.0424327,3.20634,20,0.3
0.05,0.104018,-0.0330931,3.2067,20,0.3
0.08,0.0970704,-0.0265221,3.20687,20,0.3
0.1,0.0942716,-0.0239844,3.20698,20,0.3
0.2,0.0869828,-0.0178498,3.20715,20,0.3
0.3,0.0835224,-0.0151919,3.20716,20,0.3
0.5,0.0798138,-0.0125608,3.20723,20,0.3
0.8,0.0769077,-0.0107276,3.2073,20,0.3
1.0,0.0756546,-0.0100156,3.20733,20,0.3
2.0,0.0721327,-0.0082734,3.20737,20,0.3
3.0,0.0702847,-0.00748181,3.20742,20,0.3
5.0,0.0681852,-0.00663968,3.20745,20,0.3
8.0,0.0664685,-0.00594442,3.20749,20,0.3
10.0,0.0657601,-0.00573219,3.2075,20,0.3
11.0,0.0654692,-0.00564183,3.20751,20,0.3
21.0,0.0635328,-0.00524163,3.20751,20,0.3
31.0,0.062349,-0.00516023,3.20752,20,0.3
61.0,0.0601313,-0.00525563,3.20752,20,0.3
81.0,0.0591279,-0.00524339,3.20753,20,0.3
100.0,0.0583239,-0.00523702,3.20752,20,0.3
110.0,0.0579834,-0.00520223,3.20753,20,0.3
210.0,0.0555563,-0.00487424,3.2075,20,0.3
310.0,0.0540925,-0.004418,3.20752,20,0.3
510.0,0.0522571,-0.00349045,3.20752,20,0.3
810.0,0.0505938,-0.0021677,3.20752,20,0.3
1000.0,0.0498473,-0.00132768,3.20752,20,0.3

File: Hk_IFR14500_SoC_15_29-06-2023_06-30.csv
Frequency(Hz),R(ohm),X(ohm),V(V),T(deg C),Range(Ohm)
0.01,0.144762,-0.0650119,3.22758,20,0.3
0.02,0.121329,-0.0495161,3.23135,20,0.3
0.03,0.111205,-0.0409308,3.2315,20,0.3
0.05,0.101681,-0.0318233,3.23184,20,0.3
0.08,0.0950476,-0.0254125,3.23202,20,0.3
0.1,0.0923799,-0.0229397,3.23212,20,0.3
0.2,0.0855035,-0.0169749,3.23228,20,0.3
0.3,0.0822364,-0.0143957,3.23231,20,0.3
0.5,0.0787613,-0.0118512,3.23238,20,0.3
0.8,0.0760432,-0.0100984,3.23244,20,0.3
1.0,0.0748826,-0.00942547,3.23249,20,0.3
2.0,0.0716016,-0.00780252,3.23252,20,0.3
3.0,0.0698723,-0.0070973,3.23257,20,0.3
5.0,0.0678795,-0.00633546,3.23259,20,0.3
8.0,0.0662086,-0.00576266,3.23262,20,0.3
10.0,0.0655217,-0.0055352,3.23264,20,0.3
11.0,0.0652343,-0.00546874,3.23264,20,0.3
21.0,0.0633149,-0.00516996,3.23265,20,0.3
31.0,0.0621719,-0.00511079,3.23267,20,0.3
61.0,0.0599726,-0.0051898,3.23268,20,0.3
81.0,0.0589544,-0.00520962,3.23266,20,0.3
100.0,0.0581901,-0.00519371,3.23265,20,0.3
110.0,0.0578368,-0.00516456,3.23265,20,0.3
210.0,0.0554083,-0.0048549,3.23265,20,0.3
310.0,0.0539507,-0.00442334,3.23265,20,0.3
510.0,0.052111,-0.00352742,3.23267,20,0.3
810.0,0.0504488,-0.00217176,3.23266,20,0.3
1000.0,0.0496934,-0.00133878,3.23266,20,0.3

File: Hk_IFR14500_SoC_20_29-06-2023_05-30.csv
Frequency(Hz),R(ohm),X(ohm),V(V),T(deg C),Range(Ohm)
0.01,0.141043,-0.061642,3.24932,20,0.3
0.02,0.118282,-0.0472009,3.25285,20,0.3
0.03,0.108512,-0.0390144,3.25291,20,0.3
0.05,0.099373,-0.0302807,3.25323,20,0.3
0.08,0.0930605,-0.0241127,3.25337,20,0.3
0.1,0.0905385,-0.0217369,3.25348,20,0.3
0.2,0.0840558,-0.0160147,3.25361,20,0.3
0.3,0.0809949,-0.0135472,3.25365,20,0.3
0.5,0.0777575,-0.0111207,3.25371,20,0.3
0.8,0.0752351,-0.0094486,3.25375,20,0.3
1.0,0.0741549,-0.00881325,3.2538,20,0.3
2.0,0.07112,-0.00730315,3.25383,20,0.3
3.0,0.0695277,-0.00668767,3.25386,20,0.3
5.0,0.0676244,-0.00602011,3.2539,20,0.3
8.0,0.0660602,-0.00557528,3.25393,20,0.3
10.0,0.0653688,-0.00539361,3.25394,20,0.3
11.0,0.0650603,-0.00532988,3.25395,20,0.3
21.0,0.0631736,-0.00507202,3.25396,20,0.3
31.0,0.0620083,-0.00509411,3.25396,20,0.3
61.0,0.0598162,-0.00515604,3.25396,20,0.3
81.0,0.0588103,-0.00517734,3.25396,20,0.3
100.0,0.0580622,-0.00518398,3.25397,20,0.3
110.0,0.0577079,-0.00515852,3.25395,20,0.3
210.0,0.0552792,-0.00483177,3.25396,20,0.3
310.0,0.0538059,-0.00443613,3.25397,20,0.3
510.0,0.0519537,-0.00356594,3.25396,20,0.3
810.0,0.0502811,-0.0022009,3.25396,20,0.3
1000.0,0.049528,-0.00135463,3.25396,20,0.3

File: Hk_IFR14500_SoC_25_29-06-2023_04-42.csv
Frequency(Hz),R(ohm),X(ohm),V(V),T(deg C),Range(Ohm)
0.01,0.138263,-0.0589183,3.26229,20,0.3
0.02,0.116123,-0.0453932,3.26577,20,0.3
0.03,0.10663,-0.0375441,3.26585,20,0.3
0.05,0.0977953,-0.0291044,3.26616,20,0.3
0.08,0.0917348,-0.0231465,3.26628,20,0.3
0.1,0.0893223,-0.0208548,3.26642,20,0.3
0.2,0.0831089,-0.0153253,3.26655,20,0.3
0.3,0.0801985,-0.0129407,3.26657,20,0.3
0.5,0.0771153,-0.0106067,3.26662,20,0.3
0.8,0.0747351,-0.00900061,3.26666,20,0.3
1.0,0.0737028,-0.00838293,3.26672,20,0.3
2.0,0.0708465,-0.00698037,3.26676,20,0.3
3.0,0.0693366,-0.00639315,3.26679,20,0.3
5.0,0.0675155,-0.00581056,3.26683,20,0.3
8.0,0.0659822,-0.00537311,3.26685,20,0.3
10.0,0.065304,-0.00525532,3.26685,20,0.3
11.0,0.0650363,-0.0051949,3.26688,20,0.3
21.0,0.063155,-0.00498946,3.26687,20,0.3
31.0,0.0620137,-0.00501217,3.26688,20,0.3
61.0,0.0598149,-0.00515849,3.26688,20,0.3
81.0,0.0587978,-0.00519471,3.26688,20,0.3
100.0,0.0580434,-0.00518182,3.26688,20,0.3
110.0,0.057679,-0.00517344,3.2669,20,0.3
210.0,0.0552604,-0.00489294,3.26687,20,0.3
310.0,0.053784,-0.00445429,3.26688,20,0.3
510.0,0.0519093,-0.00356078,3.26686,20,0.3
810.0,0.0501931,-0.0022172,3.26688,20,0.3
1000.0,0.049438,-0.00138356,3.26689,20,0.3

File: Hk_IFR14500_SoC_30_29-06-2023_03-41.csv
Frequency(Hz),R(ohm),X(ohm),V(V),T(deg C),Range(Ohm)
0.01,0.13531,-0.0566423,3.27816,20,0.3
0.02,0.113582,-0.0436875,3.28192,20,0.3
0.03,0.104376,-0.0360867,3.28212,20,0.3
0.05,0.0958794,-0.027895,3.28247,20,0.3
0.08,0.0900937,-0.0221125,3.28264,20,0.3
0.1,0.0877967,-0.0198997,3.28277,20,0.3
0.2,0.0819148,-0.0145615,3.28292,20,0.3
0.3,0.0791699,-0.0122659,3.28293,20,0.3
0.5,0.0762655,-0.0100134,3.283,20,0.3
0.8,0.0740315,-0.00847825,3.28306,20,0.3
1.0,0.0730769,-0.00789898,3.28311,20,0.3
2.0,0.0704164,-0.00657263,3.28314,20,0.3
3.0,0.0690003,-0.00605615,3.28318,20,0.3
5.0,0.0672863,-0.0055455,3.28321,20,0.3
8.0,0.0658381,-0.00520201,3.28324,20,0.3
10.0,0.065166,-0.00507438,3.28323,20,0.3
11.0,0.0648849,-0.00503269,3.28325,20,0.3
21.0,0.0630452,-0.00486992,3.28326,20,0.3
31.0,0.0619176,-0.00491144,3.28325,20,0.3
61.0,0.0597422,-0.00510056,3.28327,20,0.3
81.0,0.0587392,-0.00514608,3.28325,20,0.3
100.0,0.0580085,-0.00514564,3.28326,20,0.3
110.0,0.0576326,-0.00512376,3.28325,20,0.3
210.0,0.055212,-0.00485334,3.28327,20,0.3
310.0,0.053739,-0.00447794,3.28325,20,0.3
510.0,0.0518499,-0.00359387,3.28326,20,0.3
810.0,0.050147,-0.00225219,3.28324,20,0.3
1000.0,0.0493866,-0.00139863,3.28326,20,0.3

File: Hk_IFR14500_SoC_35_29-06-2023_02-53.csv
Frequency(Hz),R(ohm),X(ohm),V(V),T(deg C),Range(Ohm)
0.01,0.133106,-0.0548107,3.28302,20,0.3
0.02,0.111789,-0.0425223,3.28627,20,0.3
0.03,0.102781,-0.035123,3.28631,20,0.3
0.05,0.0945144,-0.0270926,3.28658,20,0.3
0.08,0.088929,-0.0214281,3.2867,20,0.3
0.1,0.0867258,-0.0192566,3.28682,20,0.3
0.2,0.0810915,-0.0140246,3.28695,20,0.3
0.3,0.0784682,-0.0117861,3.28697,20,0.3
0.5,0.0756984,-0.00960646,3.28704,20,0.3
0.8,0.0735777,-0.00811484,3.28708,20,0.3
1.0,0.0726653,-0.00753899,3.28712,20,0.3
2.0,0.0701341,-0.00626524,3.28715,20,0.3
3.0,0.0687804,-0.00576963,3.28718,20,0.3
5.0,0.0671698,-0.00533576,3.28721,20,0.3
8.0,0.0657478,-0.00500815,3.28725,20,0.3
10.0,0.0651077,-0.00492948,3.28725,20,0.3
11.0,0.0648424,-0.0049005,3.28725,20,0.3
21.0,0.0630489,-0.00480333,3.28726,20,0.3
31.0,0.061902,-0.00486229,3.28727,20,0.3
61.0,0.0597635,-0.00505265,3.28727,20,0.3
81.0,0.0587656,-0.00509796,3.28727,20,0.3
100.0,0.0579996,-0.00511417,3.28726,20,0.3
110.0,0.0576848,-0.00509038,3.28726,20,0.3
210.0,0.0552649,-0.00483973,3.28727,20,0.3
310.0,0.0537622,-0.00445101,3.28727,20,0.3
510.0,0.0518799,-0.00361257,3.28726,20,0.3
810.0,0.0501727,-0.00225746,3.28727,20,0.3
1000.0,0.0494193,-0.00140094,3.28727,20,0.3

File: Hk_IFR14500_SoC_40_29-06-2023_01-52.csv
Frequency(Hz),R(ohm),X(ohm),V(V),T(deg C),Range(Ohm)
0.01,0.131332,-0.0536227,3.28471,20,0.3
0.02,0.110105,-0.0416486,3.28759,20,0.3
0.03,0.101233,-0.0343296,3.28755,20,0.3
0.05,0.0931771,-0.0263989,3.28779,20,0.3
0.08,0.0877724,-0.0207963,3.28789,20,0.3
0.1,0.0856459,-0.0186575,3.28798,20,0.3
0.2,0.0802397,-0.0135286,3.2881,20,0.3
0.3,0.0777303,-0.0113416,3.28812,20,0.3
0.5,0.0750925,-0.00921015,3.28817,20,0.3
0.8,0.073073,-0.00775128,3.28823,20,0.3
1.0,0.0722185,-0.00720111,3.28826,20,0.3
2.0,0.069831,-0.00597469,3.28829,20,0.3
3.0,0.0685587,-0.00552219,3.28834,20,0.3
5.0,0.0670018,-0.00509105,3.28836,20,0.3
8.0,0.0656567,-0.00484041,3.28835,20,0.3
10.0,0.065035,-0.00476581,3.28839,20,0.3
11.0,0.0647469,-0.00474801,3.28838,20,0.3
21.0,0.0629706,-0.00470333,3.2884,20,0.3
31.0,0.0618947,-0.00479121,3.2884,20,0.3
61.0,0.0597536,-0.00499618,3.28841,20,0.3
81.0,0.0587956,-0.00505021,3.28841,20,0.3
100.0,0.0580391,-0.00507775,3.2884,20,0.3
110.0,0.0576808,-0.00505634,3.2884,20,0.3
210.0,0.0552926,-0.00481501,3.2884,20,0.3
310.0,0.0538033,-0.00441943,3.2884,20,0.3
510.0,0.0519253,-0.00359009,3.2884,20,0.3
810.0,0.0502231,-0.00225405,3.2884,20,0.3
1000.0,0.0494532,-0.00140867,3.28839,20,0.3

File: Hk_IFR14500_SoC_45_29-06-2023_01-04.csv
Frequency(Hz),R(ohm),X(ohm),V(V),T(deg C),Range(Ohm)
0.01,0.130387,-0.0541947,3.28603,20,0.3
0.02,0.10912,-0.041684,3.28869,20,0.3
0.03,0.100327,-0.034175,3.28859,20,0.3
0.05,0.0923978,-0.0261332,3.28877,20,0.3
0.08,0.0871204,-0.0205174,3.28889,20,0.3
0.1,0.0850331,-0.0183732,3.28895,20,0.3
0.2,0.0797647,-0.0132655,3.28904,20,0.3
0.3,0.0773129,-0.0110837,3.28909,20,0.3
0.5,0.074758,-0.00896565,3.28914,20,0.3
0.8,0.0728092,-0.0075264,3.28917,20,0.3
1.0,0.0719806,-0.00699537,3.28921,20,0.3
2.0,0.0696889,-0.00578307,3.28925,20,0.3
3.0,0.0684698,-0.00534725,3.28927,20,0.3
5.0,0.0669986,-0.00499603,3.2893,20,0.3
8.0,0.065657,-0.00473957,3.28933,20,0.3
10.0,0.0650479,-0.00465695,3.28933,20,0.3
11.0,0.0647835,-0.00466052,3.28935,20,0.3
21.0,0.0630489,-0.00460003,3.28936,20,0.3
31.0,0.0619405,-0.00475255,3.28936,20,0.3
61.0,0.0598382,-0.00496806,3.28936,20,0.3
81.0,0.0588741,-0.00503643,3.28935,20,0.3
100.0,0.0580821,-0.00504571,3.28935,20,0.3
110.0,0.0577348,-0.00504603,3.28935,20,0.3
210.0,0.0553523,-0.00480189,3.28934,20,0.3
310.0,0.0538695,-0.00445619,3.28936,20,0.3
510.0,0.0519963,-0.00360334,3.28934,20,0.3
810.0,0.0502603,-0.00226387,3.28935,20,0.3
1000.0,0.0495247,-0.00142141,3.28935,20,0.3

File: Hk_IFR14500_SoC_50_29-06-2023_00-04.csv
Frequency(Hz),R(ohm),X(ohm),V(V),T(deg C),Range(Ohm)
0.01,0.128869,-0.0535612,3.28733,20,0.3
0.02,0.107874,-0.0410521,3.28986,20,0.3
0.03,0.0992347,-0.033579,3.28972,20,0.3
0.05,0.0914833,-0.0256084,3.28989,20,0.3
0.08,0.0863395,-0.0200603,3.28998,20,0.3
0.1,0.0843228,-0.0179581,3.29006,20,0.3
0.2,0.0792037,-0.0129309,3.29017,20,0.3
0.3,0.0768272,-0.0107885,3.29017,20,0.3
0.5,0.0743599,-0.00872487,3.29022,20,0.3
0.8,0.0724675,-0.00731069,3.29027,20,0.3
1.0,0.0716604,-0.00676546,3.29031,20,0.3
2.0,0.0694619,-0.00560115,3.29034,20,0.3
3.0,0.0682803,-0.00516004,3.29037,20,0.3
5.0,0.0668739,-0.00484697,3.2904,20,0.3
8.0,0.065584,-0.00461338,3.2904,20,0.3
10.0,0.0650024,-0.00456731,3.29041,20,0.3
11.0,0.064708,-0.0045343,3.29043,20,0.3
21.0,0.0630396,-0.00457741,3.29045,20,0.3
31.0,0.061907,-0.00466417,3.29043,20,0.3
61.0,0.0598234,-0.00491306,3.29044,20,0.3
81.0,0.0588859,-0.00498184,3.29044,20,0.3
100.0,0.0581035,-0.00499926,3.29043,20,0.3
110.0,0.0577643,-0.00501972,3.29043,20,0.3
210.0,0.055385,-0.0047979,3.29044,20,0.3
310.0,0.0538963,-0.00440596,3.29044,20,0.3
510.0,0.0520256,-0.00357139,3.29043,20,0.3
810.0,0.0503076,-0.002261,3.29043,20,0.3
1000.0,0.0495495,-0.00141816,3.29043,20,0.3

File: Hk_IFR14500_SoC_55_28-06-2023_23-15.csv
Frequency(Hz),R(ohm),X(ohm),V(V),T(deg C),Range(Ohm)
0.01,0.127865,-0.0534614,3.28863,20,0.3
0.02,0.107036,-0.0408354,3.29111,20,0.3
0.03,0.0985219,-0.0333592,3.291,20,0.3
0.05,0.0908878,-0.025372,3.29116,20,0.3
0.08,0.0858541,-0.0198274,3.29126,20,0.3
0.1,0.0838837,-0.0177308,3.29134,20,0.3
0.2,0.0788663,-0.0127285,3.29143,20,0.3
0.3,0.076551,-0.0106171,3.29145,20,0.3
0.5,0.0741217,-0.00855742,3.2915,20,0.3
0.8,0.0722779,-0.00715809,3.29155,20,0.3
1.0,0.0715049,-0.00663028,3.29158,20,0.3
2.0,0.0693506,-0.00547679,3.29162,20,0.3
3.0,0.0682012,-0.00505288,3.29165,20,0.3
5.0,0.066819,-0.0047201,3.29166,20,0.3
8.0,0.0655837,-0.00452711,3.2917,20,0.3
10.0,0.0649926,-0.00448917,3.29169,20,0.3
11.0,0.0647341,-0.0045143,3.29169,20,0.3
21.0,0.0630528,-0.00455031,3.29171,20,0.3
31.0,0.0619593,-0.00466236,3.29172,20,0.3
61.0,0.0598582,-0.00488769,3.29172,20,0.3
81.0,0.0589243,-0.00498151,3.29171,20,0.3
100.0,0.0581605,-0.00500662,3.29171,20,0.3
110.0,0.057816,-0.00499651,3.29171,20,0.3
210.0,0.0554186,-0.00481599,3.29171,20,0.3
310.0,0.0539576,-0.00441684,3.2917,20,0.3
510.0,0.0520805,-0.00358136,3.2917,20,0.3
810.0,0.050355,-0.00225842,3.29171,20,0.3
1000.0,0.0495827,-0.0014283,3.29171,20,0.3

File: Hk_IFR14500_SoC_60_28-06-2023_22-15.csv
Frequency(Hz),R(ohm),X(ohm),V(V),T(deg C),Range(Ohm)
0.01,0.126773,-0.0543742,3.29222,20,0.3
0.02,0.106048,-0.0413548,3.29506,20,0.3
0.03,0.0976105,-0.0336528,3.29514,20,0.3
0.05,0.0900787,-0.02546,3.29541,20,0.3
0.08,0.0851249,-0.0197975,3.29556,20,0.3
0.1,0.0831997,-0.0176654,3.2957,20,0.3
0.2,0.0782932,-0.0125915,3.29582,20,0.3
0.3,0.0760287,-0.0104592,3.29585,20,0.3
0.5,0.0736688,-0.00839699,3.29592,20,0.3
0.8,0.0718812,-0.00700385,3.29597,20,0.3
1.0,0.071128,-0.00647898,3.29601,20,0.3
2.0,0.0690417,-0.00531312,3.29603,20,0.3
3.0,0.0679645,-0.0049133,3.29609,20,0.3
5.0,0.0666153,-0.00459034,3.29609,20,0.3
8.0,0.0654225,-0.00442672,3.29611,20,0.3
10.0,0.0648444,-0.00437177,3.29613,20,0.3
11.0,0.0646069,-0.00435688,3.29613,20,0.3
21.0,0.0629411,-0.00443483,3.29613,20,0.3
31.0,0.0618983,-0.00455411,3.29615,20,0.3
61.0,0.0598165,-0.00481878,3.29616,20,0.3
81.0,0.0588439,-0.00493246,3.29614,20,0.3
100.0,0.0581198,-0.00495166,3.29616,20,0.3
110.0,0.0577863,-0.00493708,3.29614,20,0.3
210.0,0.0554187,-0.00475688,3.29615,20,0.3
310.0,0.0539526,-0.00438915,3.29615,20,0.3
510.0,0.052097,-0.00355301,3.29614,20,0.3
810.0,0.0503627,-0.00225164,3.29614,20,0.3
1000.0,0.0496007,-0.00141603,3.29616,20,0.3

File: Hk_IFR14500_SoC_65_28-06-2023_21-27.csv
Frequency(Hz),R(ohm),X(ohm),V(V),T(deg C),Range(Ohm)
0.01,0.128202,-0.0608142,3.30538,20,0.3
0.02,0.106566,-0.0449893,3.31035,20,0.3
0.03,0.0978463,-0.0362199,3.31134,20,0.3
0.05,0.0900909,-0.0270986,3.31213,20,0.3
0.08,0.0850064,-0.0208781,3.3126,20,0.3
0.1,0.0830472,-0.0185564,3.31289,20,0.3
0.2,0.0780456,-0.0130664,3.31316,20,0.3
0.3,0.0757566,-0.0107764,3.31327,20,0.3
0.5,0.0733892,-0.00858507,3.31337,20,0.3
0.8,0.0715925,-0.00710193,3.31345,20,0.3
1.0,0.0708463,-0.00654787,3.31352,20,0.3
2.0,0.0687816,-0.00531849,3.31355,20,0.3
3.0,0.0676987,-0.00488171,3.31361,20,0.3
5.0,0.06639,-0.00454932,3.31363,20,0.3
8.0,0.0651959,-0.00437259,3.31366,20,0.3
10.0,0.0646393,-0.00433747,3.31367,20,0.3
11.0,0.0644082,-0.00431596,3.31366,20,0.3
21.0,0.0627589,-0.00439684,3.31368,20,0.3
31.0,0.0617345,-0.00450733,3.3137,20,0.3
61.0,0.0596927,-0.00476402,3.3137,20,0.3
81.0,0.0587383,-0.00485399,3.31369,20,0.3
100.0,0.0580168,-0.00486609,3.3137,20,0.3
110.0,0.0576818,-0.00489047,3.31369,20,0.3
210.0,0.0553607,-0.00469679,3.31371,20,0.3
310.0,0.0539163,-0.00431383,3.31369,20,0.3
510.0,0.0520461,-0.00352507,3.3137,20,0.3
810.0,0.0503382,-0.00223005,3.31369,20,0.3
1000.0,0.0495785,-0.00139811,3.31371,20,0.3

File: Hk_IFR14500_SoC_70_28-06-2023_20-26.csv
Frequency(Hz),R(ohm),X(ohm),V(V),T(deg C),Range(Ohm)
0.01,0.12665,-0.0576199,3.32149,20,0.3
0.02,0.105072,-0.0427678,3.32509,20,0.3
0.03,0.0964997,-0.0344523,3.32534,20,0.3
0.05,0.0889476,-0.0258327,3.32571,20,0.3
0.08,0.084037,-0.0199392,3.32591,20,0.3
0.1,0.0821318,-0.0177334,3.32608,20,0.3
0.2,0.0773137,-0.0125366,3.32623,20,0.3
0.3,0.0751034,-0.0103597,3.32627,20,0.3
0.5,0.0727954,-0.00827051,3.32633,20,0.3
0.8,0.0710524,-0.00683915,3.3264,20,0.3
1.0,0.0703398,-0.0063241,3.32644,20,0.3
2.0,0.0683288,-0.0051249,3.32648,20,0.3
3.0,0.0672862,-0.00471954,3.32651,20,0.3
5.0,0.0660294,-0.00438087,3.32652,20,0.3
8.0,0.0648852,-0.00423961,3.32653,20,0.3
10.0,0.0643575,-0.00423001,3.32656,20,0.3
11.0,0.0641046,-0.00417548,3.32655,20,0.3
21.0,0.062515,-0.00428294,3.32657,20,0.3
31.0,0.0615013,-0.00438868,3.32657,20,0.3
61.0,0.0595038,-0.00468551,3.32658,20,0.3
81.0,0.0585811,-0.00475116,3.32658,20,0.3
100.0,0.0578842,-0.00479539,3.32658,20,0.3
110.0,0.0575631,-0.00478997,3.32657,20,0.3
210.0,0.055227,-0.0046277,3.32658,20,0.3
310.0,0.0538062,-0.00427709,3.32657,20,0.3
510.0,0.0519651,-0.00348415,3.32657,20,0.3
810.0,0.0502532,-0.00221987,3.32657,20,0.3
1000.0,0.04948,-0.00136392,3.32658,20,0.3

File: Hk_IFR14500_SoC_75_28-06-2023_19-38.csv
Frequency(Hz),R(ohm),X(ohm),V(V),T(deg C),Range(Ohm)
0.01,0.124467,-0.0543852,3.32382,20,0.3
0.02,0.103435,-0.0408948,3.32649,20,0.3
0.03,0.0950996,-0.0330249,3.3265,20,0.3
0.05,0.0878,-0.0247755,3.32673,20,0.3
0.08,0.0830706,-0.0191271,3.32687,20,0.3
0.1,0.0812544,-0.0170093,3.32699,20,0.3
0.2,0.0766252,-0.0120208,3.32711,20,0.3
0.3,0.0745081,-0.00994136,3.32716,20,0.3
0.5,0.0722965,-0.00793247,3.32721,20,0.3
0.8,0.0706238,-0.00657945,3.32726,20,0.3
1.0,0.0699177,-0.00606035,3.32729,20,0.3
2.0,0.0680049,-0.00495029,3.32732,20,0.3
3.0,0.0670179,-0.00453847,3.32736,20,0.3
5.0,0.0657923,-0.00423071,3.32738,20,0.3
8.0,0.0647014,-0.00411198,3.32739,20,0.3
10.0,0.0641837,-0.00408415,3.32741,20,0.3
11.0,0.0639555,-0.00405633,3.32741,20,0.3
21.0,0.0624039,-0.00419204,3.32742,20,0.3
31.0,0.0614135,-0.00430602,3.32741,20,0.3
61.0,0.0594355,-0.00461917,3.32743,20,0.3
81.0,0.0585037,-0.00470689,3.32743,20,0.3
100.0,0.0578089,-0.00476965,3.32743,20,0.3
110.0,0.0574936,-0.00475406,3.32742,20,0.3
210.0,0.0551953,-0.00458637,3.32743,20,0.3
310.0,0.0537704,-0.00425868,3.32743,20,0.3
510.0,0.0519129,-0.00349879,3.32744,20,0.3
810.0,0.0502212,-0.00220571,3.32742,20,0.3
1000.0,0.0494451,-0.00137027,3.32742,20,0.3

File: Hk_IFR14500_SoC_80_28-06-2023_18-37.csv
Frequency(Hz),R(ohm),X(ohm),V(V),T(deg C),Range(Ohm)
0.01,0.122651,-0.0521205,3.32457,20,0.3
0.02,0.101958,-0.0393023,3.32694,20,0.3
0.03,0.0938312,-0.0317307,3.32688,20,0.3
0.05,0.0867755,-0.0237616,3.32705,20,0.3
0.08,0.082227,-0.0183208,3.3272,20,0.3
0.1,0.0804788,-0.0162807,3.3273,20,0.3
0.2,0.0760611,-0.0115029,3.3274,20,0.3
0.3,0.074031,-0.00950573,3.32745,20,0.3
0.5,0.0719177,-0.00759316,3.32748,20,0.3
0.8,0.0703147,-0.0062879,3.32754,20,0.3
1.0,0.0696503,-0.00580856,3.32757,20,0.3
2.0,0.0678206,-0.00473528,3.32761,20,0.3
3.0,0.0668514,-0.00435238,3.32763,20,0.3
5.0,0.0657101,-0.00407687,3.32765,20,0.3
8.0,0.0646528,-0.00397742,3.32769,20,0.3
10.0,0.0641515,-0.00398892,3.32767,20,0.3
11.0,0.0639182,-0.00392809,3.32768,20,0.3
21.0,0.0624247,-0.00412763,3.3277,20,0.3
31.0,0.0614156,-0.00426032,3.3277,20,0.3
61.0,0.0594545,-0.00458036,3.32771,20,0.3
81.0,0.0585349,-0.0047064,3.32771,20,0.3
100.0,0.0578289,-0.00473367,3.3277,20,0.3
110.0,0.0575042,-0.00475005,3.32769,20,0.3
210.0,0.055237,-0.00459711,3.32771,20,0.3
310.0,0.053769,-0.00429736,3.32771,20,0.3
510.0,0.0519127,-0.00350754,3.3277,20,0.3
810.0,0.0501788,-0.00223506,3.3277,20,0.3
1000.0,0.049416,-0.00141254,3.3277,20,0.3

File: Hk_IFR14500_SoC_85_28-06-2023_17-49.csv
Frequency(Hz),R(ohm),X(ohm),V(V),T(deg C),Range(Ohm)
0.01,0.120311,-0.0497664,3.32478,20,0.3
0.02,0.100361,-0.0378089,3.32701,20,0.3
0.03,0.0925568,-0.0305582,3.32693,20,0.3
0.05,0.0858085,-0.0228688,3.32712,20,0.3
0.08,0.0814617,-0.0176052,3.32725,20,0.3
0.1,0.0798065,-0.0156342,3.32736,20,0.3
0.2,0.0756027,-0.0110256,3.32748,20,0.3
0.3,0.0736718,-0.00912159,3.3275,20,0.3
0.5,0.0716493,-0.00727489,3.32756,20,0.3
0.8,0.0701248,-0.00603968,3.32759,20,0.3
1.0,0.0694861,-0.00556965,3.32765,20,0.3
2.0,0.0677322,-0.00454775,3.32768,20,0.3
3.0,0.066804,-0.00419338,3.32769,20,0.3
5.0,0.0657068,-0.00394424,3.32771,20,0.3
8.0,0.064684,-0.00388519,3.32773,20,0.3
10.0,0.064206,-0.00389225,3.32775,20,0.3
11.0,0.0639771,-0.00388164,3.32774,20,0.3
21.0,0.0625007,-0.00410377,3.32775,20,0.3
31.0,0.0615116,-0.00422998,3.32776,20,0.3
61.0,0.0595315,-0.00461638,3.32775,20,0.3
81.0,0.0586379,-0.0047048,3.32775,20,0.3
100.0,0.0579217,-0.00475996,3.32775,20,0.3
110.0,0.0575577,-0.0047812,3.32774,20,0.3
210.0,0.0552544,-0.00465741,3.32776,20,0.3
310.0,0.0538091,-0.00432766,3.32776,20,0.3
510.0,0.0519276,-0.00355156,3.32775,20,0.3
810.0,0.0501865,-0.00226686,3.32775,20,0.3
1000.0,0.0494352,-0.00143994,3.32777,20,0.3

File: Hk_IFR14500_SoC_90_28-06-2023_16-49.csv
Frequency(Hz),R(ohm),X(ohm),V(V),T(deg C),Range(Ohm)
0.01,0.117252,-0.0475523,3.32512,20,0.3
0.02,0.0981068,-0.0361391,3.32722,20,0.3
0.03,0.0906531,-0.0291513,3.32717,20,0.3
0.05,0.0842551,-0.021734,3.32737,20,0.3
0.08,0.0801957,-0.0166714,3.3275,20,0.3
0.1,0.0786294,-0.0147714,3.32761,20,0.3
0.2,0.0747181,-0.0103755,3.32771,20,0.3
0.3,0.0729162,-0.00855816,3.32775,20,0.3
0.5,0.0710452,-0.00682944,3.32782,20,0.3
0.8,0.0696077,-0.00566033,3.32786,20,0.3
1.0,0.0690308,-0.00524413,3.32788,20,0.3
2.0,0.0673785,-0.00427398,3.32792,20,0.3
3.0,0.0665178,-0.00395465,3.32793,20,0.3
5.0,0.0654722,-0.00373605,3.32796,20,0.3
8.0,0.064508,-0.00370815,3.32797,20,0.3
10.0,0.0640548,-0.00370057,3.32797,20,0.3
11.0,0.0638453,-0.00373711,3.32798,20,0.3
21.0,0.0624012,-0.00396698,3.328,20,0.3
31.0,0.0614569,-0.00412853,3.32801,20,0.3
61.0,0.0595046,-0.00455432,3.328,20,0.3
81.0,0.0585833,-0.00467484,3.32799,20,0.3
100.0,0.0578776,-0.00472665,3.32799,20,0.3
110.0,0.0575544,-0.00472726,3.32799,20,0.3
210.0,0.0552384,-0.00462547,3.32798,20,0.3
310.0,0.0537963,-0.00434931,3.32799,20,0.3
510.0,0.0519074,-0.00356603,3.328,20,0.3
810.0,0.0501415,-0.0022947,3.32799,20,0.3
1000.0,0.0493639,-0.00145924,3.32799,20,0.3

File: Hk_IFR14500_SoC_95_28-06-2023_16-01.csv
Frequency(Hz),R(ohm),X(ohm),V(V),T(deg C),Range(Ohm)
0.01,0.114604,-0.0479175,3.32602,20,0.3
0.02,0.0960795,-0.0357776,3.32801,20,0.3
0.03,0.0889823,-0.0286331,3.32801,20,0.3
0.05,0.0829612,-0.0211443,3.32822,20,0.3
0.08,0.0791422,-0.0160967,3.32836,20,0.3
0.1,0.0776935,-0.0142322,3.3285,20,0.3
0.2,0.0740423,-0.00990104,3.32861,20,0.3
0.3,0.0723675,-0.00813469,3.32865,20,0.3
0.5,0.0706225,-0.0064633,3.32872,20,0.3
0.8,0.0692784,-0.00534766,3.32875,20,0.3
1.0,0.0687355,-0.0049432,3.3288,20,0.3
2.0,0.0671883,-0.00404569,3.32882,20,0.3
3.0,0.0663838,-0.00374893,3.32884,20,0.3
5.0,0.0653934,-0.00359998,3.32887,20,0.3
8.0,0.0644849,-0.00356057,3.32888,20,0.3
10.0,0.0640403,-0.00359118,3.32889,20,0.3
11.0,0.0638449,-0.00361526,3.3289,20,0.3
21.0,0.062447,-0.0039006,3.32889,20,0.3
31.0,0.061485,-0.00408104,3.32889,20,0.3
61.0,0.0595437,-0.00454653,3.3289,20,0.3
81.0,0.0586151,-0.00468125,3.3289,20,0.3
100.0,0.057931,-0.00475463,3.32891,20,0.3
110.0,0.0575909,-0.00473993,3.32891,20,0.3
210.0,0.0552661,-0.0046796,3.32891,20,0.3
310.0,0.0537908,-0.00438202,3.3289,20,0.3
510.0,0.0518839,-0.00360085,3.3289,20,0.3
810.0,0.0501186,-0.00232901,3.3289,20,0.3
1000.0,0.0493045,-0.00150006,3.32889,20,0.3

File: Hk_IFR14500_SoC_100_28-06-2023_15-00.csv
Frequency(Hz),R(ohm),X(ohm),V(V),T(deg C),Range(Ohm)
0.01,0.350434,-1.32921,3.57829,20,3.0
0.02,0.219398,-0.763062,3.58459,20,3.0
0.03,0.175934,-0.554241,3.59135,20,3.0
0.05,0.139625,-0.361631,3.59612,20,3.0
0.08,0.117285,-0.24389,3.59948,20,3.0
0.1,0.10918,-0.204023,3.60215,20,3.0
0.2,0.0898348,-0.116203,3.60265,20,0.3
0.3,0.0816754,-0.0837267,3.60389,20,0.3
0.5,0.0736473,-0.0558472,3.60491,20,0.3
0.8,0.0680917,-0.0385945,3.60563,20,0.3
1.0,0.0659992,-0.0323926,3.60614,20,0.3
2.0,0.0614948,-0.0186406,3.60655,20,0.3
3.0,0.059907,-0.0135349,3.60684,20,0.3
5.0,0.0586158,-0.00928605,3.60702,20,0.3
8.0,0.0577259,-0.0069442,3.60717,20,0.3
10.0,0.0573355,-0.00622926,3.60725,20,0.3
11.0,0.0571758,-0.0060428,3.60732,20,0.3
21.0,0.0558673,-0.00513513,3.6074,20,0.3
31.0,0.0548764,-0.0049561,3.60745,20,0.3
61.0,0.0529523,-0.00484889,3.60749,20,0.3
81.0,0.0520285,-0.00482863,3.60747,20,0.3
100.0,0.0513843,-0.00476568,3.60745,20,0.3
110.0,0.0510574,-0.00474587,3.60742,20,0.3
210.0,0.0488329,-0.00444179,3.60741,20,0.3
310.0,0.0474864,-0.00400343,3.60741,20,0.3
510.0,0.0456772,-0.00306074,3.6074,20,0.3
810.0,0.044048,-0.00160657,3.60739,20,0.3
1000.0,0.0433369,-0.000661544,3.60737,20,0.3