Folder: virtualizacija-procesa/Baterija/SoC Estimation on Li-ion Batteries A New EIS-based Dataset for data-driven applications/B10/EIS measurements/Test_2/Hioki

File: Hk_IFR14500_SoC_5_19-04-2023_07-16.csv
Frequency(Hz),R(ohm),X(ohm),V(V),T(deg C),Range(Ohm)
0.01,0.173107,-0.0839442,3.19156,20,0.3
0.02,0.144105,-0.0626777,3.19648,20,0.3
0.03,0.131616,-0.0519174,3.19674,20,0.3
0.05,0.119472,-0.0410565,3.19718,20,0.3
0.08,0.110569,-0.0334524,3.19736,20,0.3
0.1,0.106867,-0.0304468,3.19747,20,0.3
0.2,0.097205,-0.023114,3.19764,20,0.3
0.3,0.0925601,-0.0198349,3.19763,20,0.3
0.5,0.0875606,-0.0165401,3.19771,20,0.3
0.8,0.0836206,-0.0141862,3.19777,20,0.3
1.0,0.0819324,-0.0132433,3.19784,20,0.3
2.0,0.0772169,-0.0108592,3.19788,20,0.3
3.0,0.0748047,-0.00970163,3.19794,20,0.3
5.0,0.0721902,-0.00848369,3.19797,20,0.3
8.0,0.0701355,-0.00768126,3.198,20,0.3
10.0,0.0692381,-0.00742217,3.19802,20,0.3
11.0,0.0688801,-0.00739335,3.19802,20,0.3
21.0,0.0662985,-0.00724676,3.19806,20,0.3
31.0,0.0645751,-0.00734747,3.19805,20,0.3
61.0,0.0612387,-0.00758005,3.19808,20,0.3
81.0,0.0597255,-0.0075704,3.19807,20,0.3
100.0,0.0585724,-0.0074707,3.19806,20,0.3
110.0,0.0580875,-0.0074412,3.19806,20,0.3
210.0,0.0546321,-0.0067471,3.19806,20,0.3
310.0,0.0527257,-0.0060102,3.19806,20,0.3
510.0,0.0505284,-0.00474924,3.19805,20,0.3
810.0,0.0486677,-0.00320477,3.19806,20,0.3
1000.0,0.0478834,-0.00232099,3.19806,20,0.3

File: Hk_IFR14500_SoC_10_19-04-2023_06-15.csv
Frequency(Hz),R(ohm),X(ohm),V(V),T(deg C),Range(Ohm)
0.01,0.166299,-0.0755945,3.20213,20,0.3
0.02,0.139063,-0.0574751,3.20652,20,0.3
0.03,0.12737,-0.0478739,3.20667,20,0.3
0.05,0.116008,-0.0379763,3.20706,20,0.3
0.08,0.107717,-0.0310024,3.20721,20,0.3
0.1,0.104277,-0.0282426,3.20731,20,0.3
0.2,0.0952708,-0.0214556,3.20747,20,0.3
0.3,0.090945,-0.0183969,3.20746,20,0.3
0.5,0.0863228,-0.0153218,3.20752,20,0.3
0.8,0.0827047,-0.01312,3.20757,20,0.3
1.0,0.0811547,-0.0122553,3.20763,20,0.3
2.0,0.0768244,-0.0101182,3.20768,20,0.3
3.0,0.07459,-0.00915144,3.20772,20,0.3
5.0,0.0720887,-0.0081642,3.20776,20,0.3
8.0,0.0700634,-0.00745461,3.20779,20,0.3
10.0,0.0691832,-0.00726589,3.20781,20,0.3
11.0,0.0688318,-0.00721861,3.20783,20,0.3
21.0,0.0662509,-0.00716458,3.20785,20,0.3
31.0,0.0645249,-0.00729532,3.20785,20,0.3
61.0,0.0611816,-0.00753288,3.20785,20,0.3
81.0,0.0596986,-0.00754654,3.20784,20,0.3
100.0,0.0585327,-0.0074946,3.20784,20,0.3
110.0,0.0580438,-0.00744012,3.20785,20,0.3
210.0,0.0545846,-0.0067979,3.20784,20,0.3
310.0,0.0526651,-0.00606285,3.20785,20,0.3
510.0,0.0504432,-0.00480364,3.20785,20,0.3
810.0,0.0485664,-0.00324321,3.20785,20,0.3
1000.0,0.0477743,-0.00236109,3.20784,20,0.3

File: Hk_IFR14500_SoC_15_19-04-2023_05-27.csv
Frequency(Hz),R(ohm),X(ohm),V(V),T(deg C),Range(Ohm)
0.01,0.161703,-0.0723803,3.22802,20,0.3
0.02,0.135462,-0.0551309,3.23224,20,0.3
0.03,0.124233,-0.0458874,3.23237,20,0.3
0.05,0.113368,-0.0363179,3.23272,20,0.3
0.08,0.105476,-0.0295687,3.23285,20,0.3
0.1,0.102221,-0.0269241,3.23295,20,0.3
0.2,0.0936801,-0.0203672,3.2331,20,0.3
0.3,0.0896112,-0.0174323,3.23308,20,0.3
0.5,0.0852572,-0.0144616,3.23315,20,0.3
0.8,0.081875,-0.0123596,3.23319,20,0.3
1.0,0.0804317,-0.0115415,3.23325,20,0.3
2.0,0.0763965,-0.00956031,3.23329,20,0.3
3.0,0.0742817,-0.00868216,3.23335,20,0.3
5.0,0.0719119,-0.00784294,3.23337,20,0.3
8.0,0.0699303,-0.00724809,3.23341,20,0.3
10.0,0.0690739,-0.00709459,3.23344,20,0.3
11.0,0.0686744,-0.00703654,3.23344,20,0.3
21.0,0.0661374,-0.00705991,3.23344,20,0.3
31.0,0.0644511,-0.00724469,3.23346,20,0.3
61.0,0.0611241,-0.00746731,3.23346,20,0.3
81.0,0.0596368,-0.00750536,3.23346,20,0.3
100.0,0.0585276,-0.00744219,3.23346,20,0.3
110.0,0.0580264,-0.00741949,3.23345,20,0.3
210.0,0.0545404,-0.00677606,3.23345,20,0.3
310.0,0.0526169,-0.00606793,3.23345,20,0.3
510.0,0.0503794,-0.00483353,3.23346,20,0.3
810.0,0.0484992,-0.00327341,3.23345,20,0.3
1000.0,0.0477065,-0.00239957,3.23346,20,0.3

File: Hk_IFR14500_SoC_20_19-04-2023_04-27.csv
Frequency(Hz),R(ohm),X(ohm),V(V),T(deg C),Range(Ohm)
0.01,0.156895,-0.0681274,3.24987,20,0.3
0.02,0.131623,-0.0521783,3.25375,20,0.3
0.03,0.12089,-0.0434339,3.25378,20,0.3
0.05,0.11057,-0.0343291,3.25406,20,0.3
0.08,0.103118,-0.0279089,3.25415,20,0.3
0.1,0.10005,-0.0253868,3.25424,20,0.3
0.2,0.0920225,-0.0191535,3.25439,20,0.3
0.3,0.088198,-0.0163478,3.25438,20,0.3
0.5,0.0841484,-0.0135316,3.25442,20,0.3
0.8,0.0810219,-0.0115387,3.25446,20,0.3
1.0,0.0796761,-0.0107637,3.25452,20,0.3
2.0,0.0759753,-0.00896131,3.25456,20,0.3
3.0,0.0740137,-0.00820376,3.2546,20,0.3
5.0,0.0717367,-0.00746958,3.25463,20,0.3
8.0,0.0698292,-0.00701874,3.25466,20,0.3
10.0,0.0689743,-0.00690025,3.25468,20,0.3
11.0,0.0686307,-0.00688445,3.25468,20,0.3
21.0,0.0661,-0.00691647,3.2547,20,0.3
31.0,0.0643504,-0.0071664,3.25471,20,0.3
61.0,0.061092,-0.00744096,3.25472,20,0.3
81.0,0.0596146,-0.00746479,3.2547,20,0.3
100.0,0.0585132,-0.00742791,3.2547,20,0.3
110.0,0.0579611,-0.00738715,3.2547,20,0.3
210.0,0.0545342,-0.00676298,3.2547,20,0.3
310.0,0.052587,-0.00608387,3.2547,20,0.3
510.0,0.050317,-0.00487706,3.25471,20,0.3
810.0,0.0484333,-0.00332383,3.25471,20,0.3
1000.0,0.04761,-0.0024251,3.25472,20,0.3

File: Hk_IFR14500_SoC_25_19-04-2023_03-39.csv
Frequency(Hz),R(ohm),X(ohm),V(V),T(deg C),Range(Ohm)
0.01,0.153273,-0.0651795,3.26351,20,0.3
0.02,0.12877,-0.0501182,3.26751,20,0.3
0.03,0.118415,-0.0417035,3.26761,20,0.3
0.05,0.108519,-0.0329062,3.26793,20,0.3
0.08,0.10141,-0.0267091,3.26807,20,0.3
0.1,0.0984884,-0.0242778,3.26816,20,0.3
0.2,0.090843,-0.0182648,3.2683,20,0.3
0.3,0.0872108,-0.0155694,3.26829,20,0.3
0.5,0.0833736,-0.0128544,3.26833,20,0.3
0.8,0.080409,-0.0109394,3.26839,20,0.3
1.0,0.0791659,-0.0102134,3.26843,20,0.3
2.0,0.0756924,-0.00852751,3.26847,20,0.3
3.0,0.0738262,-0.00783401,3.26853,20,0.3
5.0,0.071663,-0.00720944,3.26856,20,0.3
8.0,0.0698048,-0.00684364,3.26859,20,0.3
10.0,0.0689619,-0.00677282,3.2686,20,0.3
11.0,0.0686086,-0.0067207,3.26861,20,0.3
21.0,0.0660921,-0.0068797,3.26863,20,0.3
31.0,0.0643886,-0.00713339,3.26862,20,0.3
61.0,0.0611044,-0.0074043,3.26864,20,0.3
81.0,0.059623,-0.00745277,3.26863,20,0.3
100.0,0.0585069,-0.00740433,3.26862,20,0.3
110.0,0.0580088,-0.00738268,3.26864,20,0.3
210.0,0.0545736,-0.00679617,3.26863,20,0.3
310.0,0.0525988,-0.00613842,3.26864,20,0.3
510.0,0.0503313,-0.0049288,3.26862,20,0.3
810.0,0.0483917,-0.00338651,3.26862,20,0.3
1000.0,0.0475769,-0.00247137,3.26863,20,0.3

File: Hk_IFR14500_SoC_30_19-04-2023_02-38.csv
Frequency(Hz),R(ohm),X(ohm),V(V),T(deg C),Range(Ohm)
0.01,0.149599,-0.0627673,3.27708,20,0.3
0.02,0.125626,-0.0482485,3.28126,20,0.3
0.03,0.115635,-0.0400564,3.28151,20,0.3
0.05,0.106153,-0.0314912,3.28187,20,0.3
0.08,0.0993922,-0.0254632,3.28206,20,0.3
0.1,0.0966259,-0.0231176,3.28217,20,0.3
0.2,0.0893964,-0.0173159,3.28231,20,0.3
0.3,0.0859884,-0.0147324,3.28232,20,0.3
0.5,0.0823762,-0.0121276,3.28238,20,0.3
0.8,0.0796221,-0.0102927,3.28243,20,0.3
1.0,0.0784542,-0.00960312,3.28248,20,0.3
2.0,0.0752212,-0.00801836,3.28251,20,0.3
3.0,0.0734857,-0.00741234,3.28256,20,0.3
5.0,0.0714371,-0.0068737,3.28259,20,0.3
8.0,0.0696664,-0.00663926,3.28262,20,0.3
10.0,0.0688199,-0.00653726,3.28265,20,0.3
11.0,0.068491,-0.00655961,3.28263,20,0.3
21.0,0.0660002,-0.00675391,3.28265,20,0.3
31.0,0.0643238,-0.00697122,3.28266,20,0.3
61.0,0.0610855,-0.00732874,3.28267,20,0.3
81.0,0.0596301,-0.00738616,3.28268,20,0.3
100.0,0.05851,-0.00735953,3.28266,20,0.3
110.0,0.0579894,-0.00733855,3.28266,20,0.3
210.0,0.0545525,-0.00677592,3.28266,20,0.3
310.0,0.0526086,-0.00610245,3.28266,20,0.3
510.0,0.0503217,-0.00493157,3.28266,20,0.3
810.0,0.0483715,-0.00339086,3.28265,20,0.3
1000.0,0.0475544,-0.00249774,3.28266,20,0.3

File: Hk_IFR14500_SoC_35_19-04-2023_01-50.csv
Frequency(Hz),R(ohm),X(ohm),V(V),T(deg C),Range(Ohm)
0.01,0.146675,-0.0609501,3.28129,20,0.3
0.02,0.123194,-0.0468887,3.28482,20,0.3
0.03,0.113482,-0.0388671,3.28489,20,0.3
0.05,0.104344,-0.0304473,3.28518,20,0.3
0.08,0.0978608,-0.0245533,3.28531,20,0.3
0.1,0.0952289,-0.0222724,3.2854,20,0.3
0.2,0.0883214,-0.0166195,3.28552,20,0.3
0.3,0.0850675,-0.0141095,3.28551,20,0.3
0.5,0.0816315,-0.011578,3.28557,20,0.3
0.8,0.0790092,-0.00980395,3.28562,20,0.3
1.0,0.0779103,-0.00913849,3.28566,20,0.3
2.0,0.0748606,-0.00764262,3.2857,20,0.3
3.0,0.0732348,-0.00708655,3.28573,20,0.3
5.0,0.0712777,-0.00663607,3.28576,20,0.3
8.0,0.0695614,-0.0064462,3.28578,20,0.3
10.0,0.0687373,-0.00638796,3.28582,20,0.3
11.0,0.0683848,-0.00639619,3.28582,20,0.3
21.0,0.0659487,-0.00663756,3.28581,20,0.3
31.0,0.0643154,-0.00685965,3.28585,20,0.3
61.0,0.0610808,-0.00724772,3.28584,20,0.3
81.0,0.0595965,-0.00733604,3.28583,20,0.3
100.0,0.0585059,-0.00731771,3.28582,20,0.3
110.0,0.0579876,-0.00728547,3.28582,20,0.3
210.0,0.0545936,-0.00673988,3.28583,20,0.3
310.0,0.0526319,-0.00610105,3.28582,20,0.3
510.0,0.0503446,-0.00490982,3.28584,20,0.3
810.0,0.0483999,-0.00339176,3.28583,20,0.3
1000.0,0.0475914,-0.0024835,3.28582,20,0.3

File: Hk_IFR14500_SoC_40_19-04-2023_00-49.csv
Frequency(Hz),R(ohm),X(ohm),V(V),T(deg C),Range(Ohm)
0.01,0.143721,-0.0592151,3.28298,20,0.3
0.02,0.120638,-0.0455439,3.28608,20,0.3
0.03,0.111202,-0.0376632,3.28603,20,0.3
0.05,0.102399,-0.0293873,3.28628,20,0.3
0.08,0.0962144,-0.0236112,3.28639,20,0.3
0.1,0.0937034,-0.0213921,3.28645,20,0.3
0.2,0.0871322,-0.015893,3.28658,20,0.3
0.3,0.084036,-0.0134487,3.28655,20,0.3
0.5,0.0807924,-0.011004,3.28661,20,0.3
0.8,0.0783225,-0.00930756,3.28665,20,0.3
1.0,0.0772791,-0.00865615,3.2867,20,0.3
2.0,0.0744017,-0.00722804,3.28672,20,0.3
3.0,0.0728874,-0.00674047,3.28677,20,0.3
5.0,0.0710403,-0.00634764,3.2868,20,0.3
8.0,0.0693782,-0.00620636,3.28681,20,0.3
10.0,0.0686117,-0.00621938,3.28684,20,0.3
11.0,0.0682701,-0.00624079,3.28684,20,0.3
21.0,0.0658588,-0.00650095,3.28685,20,0.3
31.0,0.0642352,-0.0067504,3.28685,20,0.3
61.0,0.0610356,-0.00715929,3.28686,20,0.3
81.0,0.059609,-0.00724804,3.28685,20,0.3
100.0,0.0584689,-0.00725202,3.28685,20,0.3
110.0,0.0579995,-0.00723398,3.28685,20,0.3
210.0,0.0545919,-0.00669142,3.28685,20,0.3
310.0,0.0526643,-0.00607445,3.28685,20,0.3
510.0,0.0503664,-0.00489006,3.28686,20,0.3
810.0,0.0484281,-0.003378,3.28686,20,0.3
1000.0,0.0476053,-0.00249318,3.28686,20,0.3

File: Hk_IFR14500_SoC_45_19-04-2023_00-01.csv
Frequency(Hz),R(ohm),X(ohm),V(V),T(deg C),Range(Ohm)
0.01,0.141316,-0.0576641,3.28355,20,0.3
0.02,0.118631,-0.0444571,3.28653,20,0.3
0.03,0.10941,-0.0367182,3.2865,20,0.3
0.05,0.100869,-0.0285577,3.2867,20,0.3
0.08,0.0949094,-0.0228759,3.28682,20,0.3
0.1,0.0924988,-0.0206899,3.28691,20,0.3
0.2,0.0861985,-0.0153171,3.28703,20,0.3
0.3,0.083243,-0.0129479,3.28703,20,0.3
0.5,0.0801317,-0.0105627,3.28711,20,0.3
0.8,0.0777854,-0.00891839,3.28713,20,0.3
1.0,0.0767999,-0.00828282,3.28718,20,0.3
2.0,0.0740868,-0.00693102,3.28723,20,0.3
3.0,0.0726234,-0.00646931,3.28725,20,0.3
5.0,0.0708457,-0.00613241,3.28728,20,0.3
8.0,0.0692385,-0.00601634,3.28732,20,0.3
10.0,0.0684756,-0.00605592,3.28732,20,0.3
11.0,0.0681776,-0.00609017,3.28732,20,0.3
21.0,0.0658102,-0.00637128,3.28733,20,0.3
31.0,0.0641961,-0.00668397,3.28733,20,0.3
61.0,0.0610273,-0.00711095,3.28734,20,0.3
81.0,0.0595906,-0.00720531,3.28734,20,0.3
100.0,0.0585048,-0.00718666,3.28734,20,0.3
110.0,0.0579987,-0.00717111,3.28733,20,0.3
210.0,0.0546002,-0.00663119,3.28733,20,0.3
310.0,0.052688,-0.00603648,3.28734,20,0.3
510.0,0.0504,-0.00489132,3.28734,20,0.3
810.0,0.0484538,-0.00336093,3.28734,20,0.3
1000.0,0.0476296,-0.00249317,3.28732,20,0.3

File: Hk_IFR14500_SoC_50_18-04-2023_23-01.csv
Frequency(Hz),R(ohm),X(ohm),V(V),T(deg C),Range(Ohm)
0.01,0.1389,-0.0572347,3.28493,20,0.3
0.02,0.116555,-0.0438815,3.28782,20,0.3
0.03,0.10756,-0.0360931,3.28779,20,0.3
0.05,0.0992794,-0.0279147,3.28803,20,0.3
0.08,0.0935399,-0.0222413,3.28816,20,0.3
0.1,0.0912447,-0.0200805,3.28825,20,0.3
0.2,0.0852108,-0.0147717,3.28835,20,0.3
0.3,0.0823885,-0.0124485,3.28838,20,0.3
0.5,0.0794336,-0.01013,3.28843,20,0.3
0.8,0.0771934,-0.00851768,3.28848,20,0.3
1.0,0.0762569,-0.00790774,3.28851,20,0.3
2.0,0.0736849,-0.00661224,3.28856,20,0.3
3.0,0.0723246,-0.00618038,3.28859,20,0.3
5.0,0.0706446,-0.00588812,3.28862,20,0.3
8.0,0.0690937,-0.00583669,3.28865,20,0.3
10.0,0.0683744,-0.00588453,3.28865,20,0.3
11.0,0.0680351,-0.00589979,3.28865,20,0.3
21.0,0.0657076,-0.00628874,3.28866,20,0.3
31.0,0.0641258,-0.00660104,3.28867,20,0.3
61.0,0.0609965,-0.00703156,3.28868,20,0.3
81.0,0.0595825,-0.00712357,3.28867,20,0.3
100.0,0.0584643,-0.00712895,3.28867,20,0.3
110.0,0.0579933,-0.00710573,3.28866,20,0.3
210.0,0.0546173,-0.00661695,3.28866,20,0.3
310.0,0.052706,-0.00601474,3.28867,20,0.3
510.0,0.0504273,-0.00488319,3.28867,20,0.3
810.0,0.0484891,-0.0033656,3.28867,20,0.3
1000.0,0.0476801,-0.00247907,3.28867,20,0.3

File: Hk_IFR14500_SoC_55_18-04-2023_22-13.csv
Frequency(Hz),R(ohm),X(ohm),V(V),T(deg C),Range(Ohm)
0.01,0.137222,-0.0583382,3.28731,20,0.3
0.02,0.115032,-0.0442782,3.29026,20,0.3
0.03,0.106178,-0.0362121,3.29036,20,0.3
0.05,0.0980712,-0.0278032,3.29065,20,0.3
0.08,0.0924946,-0.0220146,3.29081,20,0.3
0.1,0.0902715,-0.0198224,3.29094,20,0.3
0.2,0.084451,-0.014474,3.29106,20,0.3
0.3,0.0817402,-0.012153,3.2911,20,0.3
0.5,0.0788816,-0.00984176,3.29115,20,0.3
0.8,0.076736,-0.00825485,3.2912,20,0.3
1.0,0.0758414,-0.00766024,3.29124,20,0.3
2.0,0.0733789,-0.00637957,3.29128,20,0.3
3.0,0.0720659,-0.00596776,3.29133,20,0.3
5.0,0.0704465,-0.00571818,3.29133,20,0.3
8.0,0.068976,-0.00570723,3.29135,20,0.3
10.0,0.0682379,-0.0057676,3.29139,20,0.3
11.0,0.0679367,-0.00580413,3.29139,20,0.3
21.0,0.0656354,-0.00620144,3.29139,20,0.3
31.0,0.0640528,-0.00653696,3.29139,20,0.3
61.0,0.0609559,-0.0069692,3.2914,20,0.3
81.0,0.0595467,-0.00707727,3.29139,20,0.3
100.0,0.0584761,-0.00706328,3.2914,20,0.3
110.0,0.0579711,-0.00706132,3.29139,20,0.3
210.0,0.0546102,-0.00660284,3.2914,20,0.3
310.0,0.0527192,-0.00599586,3.2914,20,0.3
510.0,0.0504408,-0.00486725,3.2914,20,0.3
810.0,0.0485072,-0.00335835,3.2914,20,0.3
1000.0,0.047688,-0.00246072,3.29139,20,0.3

File: Hk_IFR14500_SoC_60_18-04-2023_21-12.csv
Frequency(Hz),R(ohm),X(ohm),V(V),T(deg C),Range(Ohm)
0.01,0.137953,-0.0656928,3.29835,20,0.3
0.02,0.114882,-0.0483643,3.30306,20,0.3
0.03,0.105808,-0.0390386,3.30401,20,0.3
0.05,0.0975516,-0.0295214,3.30481,20,0.3
0.08,0.0919097,-0.023075,3.30528,20,0.3
0.1,0.0896813,-0.0206464,3.30557,20,0.3
0.2,0.0838604,-0.0148271,3.30581,20,0.3
0.3,0.0811681,-0.0123462,3.30593,20,0.3
0.5,0.0783522,-0.00990572,3.30602,20,0.3
0.8,0.0762584,-0.00824995,3.30609,20,0.3
1.0,0.0753774,-0.00763708,3.30615,20,0.3
2.0,0.0729748,-0.00629077,3.30623,20,0.3
3.0,0.071694,-0.00585768,3.30625,20,0.3
5.0,0.0701415,-0.00558872,3.30628,20,0.3
8.0,0.0687031,-0.00558019,3.3063,20,0.3
10.0,0.0679948,-0.00566448,3.30632,20,0.3
11.0,0.0676835,-0.00566631,3.30635,20,0.3
21.0,0.0654383,-0.00608129,3.30634,20,0.3
31.0,0.0638951,-0.00640596,3.30636,20,0.3
61.0,0.060841,-0.00686587,3.30636,20,0.3
81.0,0.0594426,-0.00695028,3.30636,20,0.3
100.0,0.0583742,-0.00699064,3.30635,20,0.3
110.0,0.0578737,-0.00698031,3.30635,20,0.3
210.0,0.0545987,-0.00654885,3.30636,20,0.3
310.0,0.0526764,-0.00594875,3.30634,20,0.3
510.0,0.0504204,-0.00483412,3.30637,20,0.3
810.0,0.0484798,-0.00334577,3.30637,20,0.3
1000.0,0.0476508,-0.0024694,3.30637,20,0.3

File: Hk_IFR14500_SoC_65_18-04-2023_20-24.csv
Frequency(Hz),R(ohm),X(ohm),V(V),T(deg C),Range(Ohm)
0.01,0.137605,-0.0665456,3.31615,20,0.3
0.02,0.114181,-0.0482195,3.32137,20,0.3
0.03,0.105061,-0.0387088,3.32217,20,0.3
0.05,0.0968517,-0.0292018,3.32285,20,0.3
0.08,0.0912669,-0.0227905,3.32324,20,0.3
0.1,0.0890487,-0.0203702,3.32348,20,0.3
0.2,0.0833222,-0.0146248,3.32368,20,0.3
0.3,0.0806497,-0.0121659,3.32375,20,0.3
0.5,0.0778821,-0.00976184,3.32386,20,0.3
0.8,0.0758006,-0.00811487,3.32392,20,0.3
1.0,0.0749452,-0.00750576,3.32399,20,0.3
2.0,0.0725827,-0.00617917,3.32402,20,0.3
3.0,0.0713538,-0.00575188,3.32406,20,0.3
5.0,0.0698254,-0.00549082,3.3241,20,0.3
8.0,0.0684265,-0.00548234,3.32411,20,0.3
10.0,0.0677299,-0.00553062,3.32412,20,0.3
11.0,0.0674174,-0.00554446,3.32414,20,0.3
21.0,0.0652134,-0.00596489,3.32415,20,0.3
31.0,0.0636858,-0.00630839,3.32415,20,0.3
61.0,0.0606776,-0.00676392,3.32415,20,0.3
81.0,0.0593236,-0.00687281,3.32415,20,0.3
100.0,0.0582942,-0.00689775,3.32416,20,0.3
110.0,0.0577976,-0.0068917,3.32415,20,0.3
210.0,0.0545274,-0.00646289,3.32416,20,0.3
310.0,0.0526491,-0.00589322,3.32416,20,0.3
510.0,0.0503778,-0.00480936,3.32416,20,0.3
810.0,0.048449,-0.00333057,3.32415,20,0.3
1000.0,0.0476248,-0.00244346,3.32415,20,0.3

File: Hk_IFR14500_SoC_70_18-04-2023_19-23.csv
Frequency(Hz),R(ohm),X(ohm),V(V),T(deg C),Range(Ohm)
0.01,0.134687,-0.0618733,3.32262,20,0.3
0.02,0.111873,-0.0454698,3.32571,20,0.3
0.03,0.103092,-0.0366265,3.32586,20,0.3
0.05,0.0952399,-0.0276638,3.32617,20,0.3
0.08,0.089931,-0.0216129,3.32636,20,0.3
0.1,0.0878264,-0.0193306,3.32652,20,0.3
0.2,0.0823819,-0.0138822,3.32664,20,0.3
0.3,0.0798513,-0.011561,3.32668,20,0.3
0.5,0.0772219,-0.00928526,3.32674,20,0.3
0.8,0.0752322,-0.00772647,3.32679,20,0.3
1.0,0.0744178,-0.00714012,3.32684,20,0.3
2.0,0.0721646,-0.00587367,3.32688,20,0.3
3.0,0.0710059,-0.00550202,3.32691,20,0.3
5.0,0.0695511,-0.00525713,3.32693,20,0.3
8.0,0.0681942,-0.00526308,3.32695,20,0.3
10.0,0.0675361,-0.0053558,3.32696,20,0.3
11.0,0.0672538,-0.00540381,3.32697,20,0.3
21.0,0.0650935,-0.00583568,3.32698,20,0.3
31.0,0.063583,-0.00619117,3.32698,20,0.3
61.0,0.0606477,-0.00669294,3.32698,20,0.3
81.0,0.0592896,-0.00681467,3.32698,20,0.3
100.0,0.0582425,-0.00682884,3.32698,20,0.3
110.0,0.0577617,-0.00681606,3.32698,20,0.3
210.0,0.0544878,-0.00645721,3.32698,20,0.3
310.0,0.0526108,-0.0058926,3.327,20,0.3
510.0,0.0503463,-0.00480495,3.32698,20,0.3
810.0,0.0484129,-0.00333021,3.32698,20,0.3
1000.0,0.0475747,-0.00244967,3.32698,20,0.3

File: Hk_IFR14500_SoC_75_18-04-2023_18-35.csv
Frequency(Hz),R(ohm),X(ohm),V(V),T(deg C),Range(Ohm)
0.01,0.131997,-0.0588455,3.32366,20,0.3
0.02,0.109737,-0.0435303,3.32631,20,0.3
0.03,0.101239,-0.0351017,3.32634,20,0.3
0.05,0.0936862,-0.0264872,3.32664,20,0.3
0.08,0.0886097,-0.0206591,3.3268,20,0.3
0.1,0.0866071,-0.0184723,3.32692,20,0.3
0.2,0.0814241,-0.0132534,3.32703,20,0.3
0.3,0.0790252,-0.0110306,3.32708,20,0.3
0.5,0.0765082,-0.0088552,3.32714,20,0.3
0.8,0.0746219,-0.00735992,3.32718,20,0.3
1.0,0.0738462,-0.00680867,3.32723,20,0.3
2.0,0.0717153,-0.00561116,3.32726,20,0.3
3.0,0.0705938,-0.00523931,3.32729,20,0.3
5.0,0.0692211,-0.00503684,3.32732,20,0.3
8.0,0.0679403,-0.00511467,3.32734,20,0.3
10.0,0.0672917,-0.00517233,3.32734,20,0.3
11.0,0.0669937,-0.00520858,3.32735,20,0.3
21.0,0.0649226,-0.00574731,3.32736,20,0.3
31.0,0.0634977,-0.00602345,3.32738,20,0.3
61.0,0.0605513,-0.00659715,3.32738,20,0.3
81.0,0.0592232,-0.00671937,3.32737,20,0.3
100.0,0.0581957,-0.00673368,3.32736,20,0.3
110.0,0.05773,-0.0067364,3.32736,20,0.3
210.0,0.0544782,-0.00639475,3.32736,20,0.3
310.0,0.0526001,-0.00586107,3.32736,20,0.3
510.0,0.0503271,-0.00480432,3.32738,20,0.3
810.0,0.0483714,-0.00333752,3.32736,20,0.3
1000.0,0.0475423,-0.00245512,3.32736,20,0.3

File: Hk_IFR14500_SoC_80_18-04-2023_17-35.csv
Frequency(Hz),R(ohm),X(ohm),V(V),T(deg C),Range(Ohm)
0.01,0.129304,-0.0562373,3.3245,20,0.3
0.02,0.107673,-0.0416781,3.3269,20,0.3
0.03,0.0994481,-0.0335562,3.3269,20,0.3
0.05,0.0922031,-0.0252606,3.32714,20,0.3
0.08,0.0873746,-0.0196573,3.32729,20,0.3
0.1,0.0854703,-0.0175496,3.3274,20,0.3
0.2,0.0805811,-0.0125641,3.32752,20,0.3
0.3,0.0783118,-0.0104573,3.32754,20,0.3
0.5,0.0759435,-0.00840244,3.32759,20,0.3
0.8,0.0741562,-0.00698612,3.32763,20,0.3
1.0,0.0734099,-0.00645905,3.32768,20,0.3
2.0,0.0713986,-0.00534793,3.32771,20,0.3
3.0,0.0703474,-0.00500203,3.32775,20,0.3
5.0,0.0690361,-0.00482408,3.32777,20,0.3
8.0,0.0677963,-0.00489097,3.32779,20,0.3
10.0,0.0671868,-0.00500128,3.32779,20,0.3
11.0,0.0669246,-0.00506727,3.3278,20,0.3
21.0,0.0648824,-0.00561193,3.3278,20,0.3
31.0,0.0634345,-0.00594522,3.32781,20,0.3
61.0,0.0605456,-0.0065401,3.32783,20,0.3
81.0,0.0592228,-0.00667537,3.32781,20,0.3
100.0,0.0582118,-0.00670729,3.3278,20,0.3
110.0,0.0577605,-0.00673278,3.32781,20,0.3
210.0,0.0545307,-0.00638203,3.32781,20,0.3
310.0,0.0526128,-0.00587407,3.32781,20,0.3
510.0,0.0503389,-0.00484123,3.32781,20,0.3
810.0,0.048378,-0.0033676,3.3278,20,0.3
1000.0,0.0475305,-0.00248237,3.32782,20,0.3

File: Hk_IFR14500_SoC_85_18-04-2023_16-47.csv
Frequency(Hz),R(ohm),X(ohm),V(V),T(deg C),Range(Ohm)
0.01,0.125224,-0.0528625,3.32501,20,0.3
0.02,0.104691,-0.0394975,3.32727,20,0.3
0.03,0.0969532,-0.0318418,3.32724,20,0.3
0.05,0.0901643,-0.0239296,3.32746,20,0.3
0.08,0.0856751,-0.0185824,3.3276,20,0.3
0.1,0.0839196,-0.0165797,3.32771,20,0.3
0.2,0.0793749,-0.0118383,3.32781,20,0.3
0.3,0.0772562,-0.00983815,3.32785,20,0.3
0.5,0.0750428,-0.007908,3.3279,20,0.3
0.8,0.0733718,-0.00658677,3.32794,20,0.3
1.0,0.0726719,-0.00608902,3.32798,20,0.3
2.0,0.0707748,-0.00502995,3.32802,20,0.3
3.0,0.0697841,-0.00471328,3.32804,20,0.3
5.0,0.0685745,-0.00458017,3.32805,20,0.3
8.0,0.0674002,-0.00467956,3.32808,20,0.3
10.0,0.0668305,-0.00477921,3.32809,20,0.3
11.0,0.0665857,-0.00485701,3.32808,20,0.3
21.0,0.0645925,-0.00539718,3.3281,20,0.3
31.0,0.0631819,-0.00583406,3.3281,20,0.3
61.0,0.0603994,-0.00639141,3.32811,20,0.3
81.0,0.0590811,-0.00652761,3.32811,20,0.3
100.0,0.0580755,-0.00660676,3.32811,20,0.3
110.0,0.0576194,-0.00661894,3.32812,20,0.3
210.0,0.0544526,-0.00630044,3.3281,20,0.3
310.0,0.0525819,-0.00583477,3.32812,20,0.3
510.0,0.0502941,-0.00479225,3.3281,20,0.3
810.0,0.0483429,-0.00334855,3.32811,20,0.3
1000.0,0.0474961,-0.00247081,3.32811,20,0.3

File: Hk_IFR14500_SoC_90_18-04-2023_15-46.csv
Frequency(Hz),R(ohm),X(ohm),V(V),T(deg C),Range(Ohm)
0.01,0.121589,-0.0502706,3.32566,20,0.3
0.02,0.101952,-0.0374665,3.32778,20,0.3
0.03,0.0945472,-0.0301035,3.32775,20,0.3
0.05,0.088122,-0.0225063,3.32798,20,0.3
0.08,0.0839168,-0.0173741,3.32813,20,0.3
0.1,0.0822985,-0.0154687,3.32824,20,0.3
0.2,0.0781173,-0.0109826,3.32835,20,0.3
0.3,0.076163,-0.00910954,3.32838,20,0.3
0.5,0.0741356,-0.00732359,3.32845,20,0.3
0.8,0.0725838,-0.00608849,3.32849,20,0.3
1.0,0.0719524,-0.00565142,3.32852,20,0.3
2.0,0.0701991,-0.00468969,3.32855,20,0.3
3.0,0.0692657,-0.00439318,3.32857,20,0.3
5.0,0.0681403,-0.00428949,3.3286,20,0.3
8.0,0.0670502,-0.00441945,3.32861,20,0.3
10.0,0.0665026,-0.00455666,3.32861,20,0.3
11.0,0.0662462,-0.00460645,3.32862,20,0.3
21.0,0.0643774,-0.00521263,3.32863,20,0.3
31.0,0.0630532,-0.00562737,3.32866,20,0.3
61.0,0.0603029,-0.00625283,3.32864,20,0.3
81.0,0.0590167,-0.00642197,3.32863,20,0.3
100.0,0.0580258,-0.00649527,3.32863,20,0.3
110.0,0.0575883,-0.00650996,3.32863,20,0.3
210.0,0.0544232,-0.00624008,3.32863,20,0.3
310.0,0.0525495,-0.00578004,3.32863,20,0.3
510.0,0.0502784,-0.00478651,3.32863,20,0.3
810.0,0.048297,-0.00334541,3.32863,20,0.3
1000.0,0.047465,-0.00248532,3.32863,20,0.3

File: Hk_IFR14500_SoC_95_18-04-2023_14-58.csv
Frequency(Hz),R(ohm),X(ohm),V(V),T(deg C),Range(Ohm)
0.01,0.118469,-0.0515934,3.32778,20,0.3
0.02,0.099611,-0.0375085,3.32975,20,0.3
0.03,0.0926272,-0.0298283,3.32983,20,0.3
0.05,0.0866125,-0.0220343,3.33009,20,0.3
0.08,0.0826957,-0.016839,3.33028,20,0.3
0.1,0.0811861,-0.0149259,3.33041,20,0.3
0.2,0.0773138,-0.0104595,3.33053,20,0.3
0.3,0.0755297,-0.00862583,3.33057,20,0.3
0.5,0.0736546,-0.00689462,3.33063,20,0.3
0.8,0.072223,-0.00574198,3.33067,20,0.3
1.0,0.0716297,-0.00531243,3.33071,20,0.3
2.0,0.0699979,-0.00442893,3.33074,20,0.3
3.0,0.0691365,-0.00417678,3.33075,20,0.3
5.0,0.0680609,-0.00410964,3.33078,20,0.3
8.0,0.0670315,-0.00424805,3.33079,20,0.3
10.0,0.0665021,-0.0044222,3.33082,20,0.3
11.0,0.0662796,-0.00448186,3.3308,20,0.3
21.0,0.0644569,-0.00513355,3.33082,20,0.3
31.0,0.0631202,-0.00560704,3.33083,20,0.3
61.0,0.060372,-0.00622565,3.33084,20,0.3
81.0,0.0591151,-0.00641804,3.33082,20,0.3
100.0,0.0581039,-0.00649108,3.33083,20,0.3
110.0,0.0576466,-0.0064895,3.33082,20,0.3
210.0,0.0544868,-0.00628392,3.33082,20,0.3
310.0,0.0525868,-0.00582688,3.33081,20,0.3
510.0,0.0503144,-0.004824,3.33084,20,0.3
810.0,0.0483334,-0.00340104,3.33081,20,0.3
1000.0,0.0474545,-0.00252068,3.33082,20,0.3

File: Hk_IFR14500_SoC_100_18-04-2023_13-57.csv
Frequency(Hz),R(ohm),X(ohm),V(V),T(deg C),Range(Ohm)
0.01,0.190085,-0.236209,3.44556,20,3.0
0.02,0.156204,-0.154287,3.44445,20,0.3
0.03,0.138409,-0.117929,3.44711,20,0.3
0.05,0.120141,-0.0850897,3.44788,20,0.3
0.08,0.106668,-0.0637842,3.44823,20,0.3
0.1,0.101305,-0.0558753,3.44849,20,0.3
0.2,0.0880134,-0.0364219,3.44883,20,0.3
0.3,0.0825196,-0.0282622,3.44892,20,0.3
0.5,0.0774313,-0.0204762,3.4491,20,0.3
0.8,0.074092,-0.0153263,3.44924,20,0.3
1.0,0.0728376,-0.013443,3.44936,20,0.3
2.0,0.0697678,-0.00930146,3.44945,20,0.3
3.0,0.0683375,-0.00780266,3.44954,20,0.3
5.0,0.0667617,-0.00662376,3.44962,20,0.3
8.0,0.0653866,-0.00601348,3.44965,20,0.3
10.0,0.0647108,-0.00583011,3.44968,20,0.3
11.0,0.0644727,-0.0058092,3.44969,20,0.3
21.0,0.0624565,-0.00587405,3.44972,20,0.3
31.0,0.061049,-0.00611305,3.44973,20,0.3
61.0,0.0582567,-0.00647724,3.44974,20,0.3
81.0,0.0569765,-0.0065102,3.44973,20,0.3
100.0,0.0559812,-0.00656848,3.44973,20,0.3
110.0,0.0555293,-0.0065467,3.44973,20,0.3
210.0,0.0524281,-0.00622261,3.44973,20,0.3
310.0,0.050581,-0.00570264,3.44972,20,0.3
510.0,0.0483429,-0.00465635,3.44972,20,0.3
810.0,0.046395,-0.00317092,3.44971,20,0.3
1000.0,0.0455594,-0.00228099,3.44973,20,0.3