Folder: virtualizacija-procesa/Baterija/SoC Estimation on Li-ion Batteries A New EIS-based Dataset for data-driven applications/B09/EIS measurements/Test_2/Hioki

File: Hk_IFR14500_SoC_5_01-04-2023_05-30.csv
Frequency(Hz),R(ohm),X(ohm),V(V),T(deg C),Range(Ohm)
0.01,0.161622,-0.0820203,3.18884,20,0.3
0.02,0.133782,-0.0606278,3.19354,20,0.3
0.03,0.121902,-0.0498078,3.19377,20,0.3
0.05,0.110542,-0.0389123,3.19421,20,0.3
0.08,0.102357,-0.0313729,3.19443,20,0.3
0.1,0.0989875,-0.0284389,3.19455,20,0.3
0.2,0.09021,-0.0213342,3.19474,20,0.3
0.3,0.0860148,-0.0182082,3.19473,20,0.3
0.5,0.0815145,-0.015094,3.19481,20,0.3
0.8,0.0779792,-0.0128943,3.19486,20,0.3
1.0,0.0764535,-0.0120214,3.19492,20,0.3
2.0,0.0722266,-0.00985365,3.19498,20,0.3
3.0,0.0700364,-0.00883431,3.19503,20,0.3
5.0,0.0676276,-0.00775412,3.19506,20,0.3
8.0,0.0657345,-0.00700348,3.19509,20,0.3
10.0,0.0649083,-0.00674155,3.19511,20,0.3
11.0,0.0645682,-0.00665587,3.19513,20,0.3
21.0,0.0622768,-0.00650926,3.19514,20,0.3
31.0,0.0607215,-0.00660736,3.19514,20,0.3
61.0,0.057753,-0.00672255,3.19516,20,0.3
81.0,0.0564345,-0.0067367,3.19515,20,0.3
100.0,0.05546,-0.00665251,3.19514,20,0.3
110.0,0.0549917,-0.00665919,3.19514,20,0.3
210.0,0.051906,-0.00612236,3.19514,20,0.3
310.0,0.0501225,-0.00550339,3.19515,20,0.3
510.0,0.0479786,-0.0043694,3.19515,20,0.3
810.0,0.046165,-0.00283076,3.19515,20,0.3
1000.0,0.0453775,-0.00191626,3.19514,20,0.3

File: Hk_IFR14500_SoC_10_01-04-2023_04-29.csv
Frequency(Hz),R(ohm),X(ohm),V(V),T(deg C),Range(Ohm)
0.01,0.155864,-0.0726239,3.20029,20,0.3
0.02,0.129569,-0.0550307,3.20442,20,0.3
0.03,0.118376,-0.0455679,3.20454,20,0.3
0.05,0.107688,-0.0358127,3.20491,20,0.3
0.08,0.100037,-0.0289823,3.20507,20,0.3
0.1,0.0968831,-0.0263088,3.20517,20,0.3
0.2,0.0886761,-0.0198074,3.20535,20,0.3
0.3,0.0847458,-0.0169182,3.20534,20,0.3
0.5,0.0805522,-0.014024,3.2054,20,0.3
0.8,0.0772633,-0.0119691,3.20546,20,0.3
1.0,0.07586,-0.0111667,3.20551,20,0.3
2.0,0.0719633,-0.00922531,3.20557,20,0.3
3.0,0.069907,-0.00832942,3.20562,20,0.3
5.0,0.0676236,-0.00742264,3.20565,20,0.3
8.0,0.0657708,-0.00681365,3.20568,20,0.3
10.0,0.0649497,-0.00659678,3.20569,20,0.3
11.0,0.0646274,-0.00655695,3.20571,20,0.3
21.0,0.0622833,-0.00645373,3.20571,20,0.3
31.0,0.0607419,-0.00658099,3.20573,20,0.3
61.0,0.0578144,-0.00674175,3.20571,20,0.3
81.0,0.0564784,-0.00674844,3.20571,20,0.3
100.0,0.0554873,-0.00670939,3.20572,20,0.3
110.0,0.0550101,-0.00668098,3.20571,20,0.3
210.0,0.0519147,-0.0061617,3.20571,20,0.3
310.0,0.0501055,-0.00557753,3.20572,20,0.3
510.0,0.047933,-0.00442695,3.20572,20,0.3
810.0,0.0460801,-0.00290273,3.20572,20,0.3
1000.0,0.045275,-0.00198241,3.20571,20,0.3

File: Hk_IFR14500_SoC_15_01-04-2023_03-41.csv
Frequency(Hz),R(ohm),X(ohm),V(V),T(deg C),Range(Ohm)
0.01,0.151764,-0.0702395,3.22619,20,0.3
0.02,0.126386,-0.0531465,3.23017,20,0.3
0.03,0.115623,-0.0439258,3.23029,20,0.3
0.05,0.105404,-0.0344062,3.23062,20,0.3
0.08,0.0981127,-0.0277479,3.23081,20,0.3
0.1,0.095141,-0.025176,3.23091,20,0.3
0.2,0.0873344,-0.0188626,3.23106,20,0.3
0.3,0.0836295,-0.0160699,3.23107,20,0.3
0.5,0.0796806,-0.0132882,3.23114,20,0.3
0.8,0.0765955,-0.0113116,3.23119,20,0.3
1.0,0.0752732,-0.0105435,3.23123,20,0.3
2.0,0.0716228,-0.0087245,3.23128,20,0.3
3.0,0.0697032,-0.00792641,3.23132,20,0.3
5.0,0.067526,-0.00714209,3.23134,20,0.3
8.0,0.0657226,-0.0066356,3.23138,20,0.3
10.0,0.0648889,-0.00645138,3.2314,20,0.3
11.0,0.0645848,-0.00639306,3.23141,20,0.3
21.0,0.0622815,-0.00634466,3.23141,20,0.3
31.0,0.0607611,-0.00649872,3.23142,20,0.3
61.0,0.057804,-0.00669833,3.23144,20,0.3
81.0,0.0564786,-0.00673705,3.23142,20,0.3
100.0,0.05548,-0.00669539,3.23142,20,0.3
110.0,0.0550194,-0.00666606,3.23142,20,0.3
210.0,0.051877,-0.00617344,3.23142,20,0.3
310.0,0.0500892,-0.00560556,3.23142,20,0.3
510.0,0.0478826,-0.00448262,3.23142,20,0.3
810.0,0.0460092,-0.00294174,3.23142,20,0.3
1000.0,0.0452059,-0.00202331,3.23142,20,0.3

File: Hk_IFR14500_SoC_20_01-04-2023_02-40.csv
Frequency(Hz),R(ohm),X(ohm),V(V),T(deg C),Range(Ohm)
0.01,0.147657,-0.0662183,3.24881,20,0.3
0.02,0.123146,-0.0503915,3.25248,20,0.3
0.03,0.112831,-0.0416739,3.25252,20,0.3
0.05,0.103088,-0.0326107,3.25284,20,0.3
0.08,0.0961838,-0.0262638,3.25296,20,0.3
0.1,0.093359,-0.0238045,3.25305,20,0.3
0.2,0.0860105,-0.0177943,3.25317,20,0.3
0.3,0.0825255,-0.0151297,3.25319,20,0.3
0.5,0.0788186,-0.012473,3.25325,20,0.3
0.8,0.0759622,-0.0106067,3.2533,20,0.3
1.0,0.0747419,-0.00989321,3.25333,20,0.3
2.0,0.0713571,-0.00820835,3.25337,20,0.3
3.0,0.0695615,-0.00750717,3.25343,20,0.3
5.0,0.0675054,-0.0068637,3.25345,20,0.3
8.0,0.0657394,-0.00641867,3.25347,20,0.3
10.0,0.0649449,-0.00629977,3.2535,20,0.3
11.0,0.0646389,-0.00628623,3.2535,20,0.3
21.0,0.0623302,-0.00625836,3.25352,20,0.3
31.0,0.0608077,-0.00646511,3.25352,20,0.3
61.0,0.0578628,-0.006709,3.25354,20,0.3
81.0,0.056538,-0.00673062,3.25353,20,0.3
100.0,0.0555348,-0.00672598,3.25351,20,0.3
110.0,0.0550666,-0.00667076,3.25352,20,0.3
210.0,0.0519527,-0.00623883,3.25352,20,0.3
310.0,0.0501086,-0.00567918,3.25352,20,0.3
510.0,0.047886,-0.00455203,3.25352,20,0.3
810.0,0.04596,-0.00300319,3.25351,20,0.3
1000.0,0.0451463,-0.00207003,3.25351,20,0.3

File: Hk_IFR14500_SoC_25_01-04-2023_01-52.csv
Frequency(Hz),R(ohm),X(ohm),V(V),T(deg C),Range(Ohm)
0.01,0.144567,-0.0633851,3.26242,20,0.3
0.02,0.120774,-0.0484601,3.2661,20,0.3
0.03,0.110795,-0.0400756,3.26617,20,0.3
0.05,0.101418,-0.0313198,3.26645,20,0.3
0.08,0.0948083,-0.0251939,3.2666,20,0.3
0.1,0.0921152,-0.0228229,3.26671,20,0.3
0.2,0.0850827,-0.0170164,3.26682,20,0.3
0.3,0.0817618,-0.0144525,3.26683,20,0.3
0.5,0.0782343,-0.0118795,3.26688,20,0.3
0.8,0.0755311,-0.0100927,3.26695,20,0.3
1.0,0.0743859,-0.00940427,3.26699,20,0.3
2.0,0.0711838,-0.00780223,3.26703,20,0.3
3.0,0.0695205,-0.00718888,3.26707,20,0.3
5.0,0.0675271,-0.00661284,3.2671,20,0.3
8.0,0.0658185,-0.00625081,3.26713,20,0.3
10.0,0.0650524,-0.00616556,3.26714,20,0.3
11.0,0.064724,-0.00617859,3.26715,20,0.3
21.0,0.0624198,-0.00622522,3.26716,20,0.3
31.0,0.0609261,-0.00642103,3.26716,20,0.3
61.0,0.057954,-0.00670488,3.26718,20,0.3
81.0,0.0566292,-0.00676429,3.26715,20,0.3
100.0,0.0556414,-0.00674503,3.26716,20,0.3
110.0,0.0551803,-0.0067307,3.26716,20,0.3
210.0,0.0520109,-0.00629168,3.26716,20,0.3
310.0,0.0501483,-0.00572365,3.26716,20,0.3
510.0,0.0479196,-0.00463148,3.26716,20,0.3
810.0,0.0459554,-0.00307713,3.26716,20,0.3
1000.0,0.0451436,-0.00214128,3.26716,20,0.3

File: Hk_IFR14500_SoC_30_01-04-2023_00-52.csv
Frequency(Hz),R(ohm),X(ohm),V(V),T(deg C),Range(Ohm)
0.01,0.141507,-0.0611035,3.27719,20,0.3
0.02,0.118163,-0.0467398,3.28125,20,0.3
0.03,0.108492,-0.0385788,3.2815,20,0.3
0.05,0.0994689,-0.0300518,3.28186,20,0.3
0.08,0.0931569,-0.0241007,3.28207,20,0.3
0.1,0.0905942,-0.0218126,3.28219,20,0.3
0.2,0.0839186,-0.0162073,3.28233,20,0.3
0.3,0.0807686,-0.0137265,3.28234,20,0.3
0.5,0.0774479,-0.0112606,3.2824,20,0.3
0.8,0.0748974,-0.00952343,3.28247,20,0.3
1.0,0.0738251,-0.00886892,3.28249,20,0.3
2.0,0.0708497,-0.00737996,3.28255,20,0.3
3.0,0.0692715,-0.00681445,3.2826,20,0.3
5.0,0.0674067,-0.00632402,3.28263,20,0.3
8.0,0.0657615,-0.00603189,3.28264,20,0.3
10.0,0.0650071,-0.00597505,3.28267,20,0.3
11.0,0.0646765,-0.00595507,3.28266,20,0.3
21.0,0.0624257,-0.00616053,3.28268,20,0.3
31.0,0.060933,-0.00633743,3.2827,20,0.3
61.0,0.0579928,-0.00665819,3.28269,20,0.3
81.0,0.0566892,-0.0067306,3.28269,20,0.3
100.0,0.0556888,-0.00672608,3.28267,20,0.3
110.0,0.0552249,-0.00670226,3.28268,20,0.3
210.0,0.0520498,-0.00628373,3.28269,20,0.3
310.0,0.0501932,-0.00575627,3.28269,20,0.3
510.0,0.0479286,-0.00465845,3.28269,20,0.3
810.0,0.0459616,-0.00312231,3.28269,20,0.3
1000.0,0.0451234,-0.00218136,3.28268,20,0.3

File: Hk_IFR14500_SoC_35_01-04-2023_00-04.csv
Frequency(Hz),R(ohm),X(ohm),V(V),T(deg C),Range(Ohm)
0.01,0.139033,-0.0593732,3.28178,20,0.3
0.02,0.11613,-0.0454746,3.2852,20,0.3
0.03,0.106709,-0.0375018,3.28528,20,0.3
0.05,0.097984,-0.0291443,3.28555,20,0.3
0.08,0.0918962,-0.0233149,3.28568,20,0.3
0.1,0.0894381,-0.0210807,3.28579,20,0.3
0.2,0.0830247,-0.015607,3.28591,20,0.3
0.3,0.0800162,-0.0132032,3.28593,20,0.3
0.5,0.0768372,-0.010802,3.28599,20,0.3
0.8,0.0744129,-0.00912637,3.28603,20,0.3
1.0,0.0733956,-0.00849396,3.28607,20,0.3
2.0,0.0705633,-0.00705168,3.28609,20,0.3
3.0,0.0690745,-0.00653781,3.28614,20,0.3
5.0,0.0672777,-0.00608771,3.28617,20,0.3
8.0,0.0656917,-0.00587734,3.2862,20,0.3
10.0,0.0649495,-0.00584367,3.2862,20,0.3
11.0,0.0646406,-0.00585231,3.28621,20,0.3
21.0,0.0624005,-0.00600843,3.28622,20,0.3
31.0,0.0609181,-0.00627689,3.28622,20,0.3
61.0,0.0580117,-0.0066276,3.28623,20,0.3
81.0,0.0567192,-0.0066651,3.28623,20,0.3
100.0,0.0557057,-0.00668021,3.28623,20,0.3
110.0,0.0552433,-0.00665309,3.28624,20,0.3
210.0,0.0520842,-0.00627777,3.28622,20,0.3
310.0,0.0502314,-0.00577893,3.28623,20,0.3
510.0,0.0479558,-0.00464656,3.28622,20,0.3
810.0,0.0459985,-0.0031054,3.28623,20,0.3
1000.0,0.0451646,-0.00218375,3.28623,20,0.3

File: Hk_IFR14500_SoC_40_31-03-2023_23-03.csv
Frequency(Hz),R(ohm),X(ohm),V(V),T(deg C),Range(Ohm)
0.01,0.136733,-0.0577806,3.28351,20,0.3
0.02,0.114153,-0.0443007,3.2865,20,0.3
0.03,0.10495,-0.0364745,3.28648,20,0.3
0.05,0.0964893,-0.02826,3.28671,20,0.3
0.08,0.090625,-0.022543,3.28681,20,0.3
0.1,0.0882662,-0.0203559,3.2869,20,0.3
0.2,0.0821205,-0.0150141,3.287,20,0.3
0.3,0.0792325,-0.0126812,3.28703,20,0.3
0.5,0.0761978,-0.0103463,3.28708,20,0.3
0.8,0.0738969,-0.0087285,3.28711,20,0.3
1.0,0.0729258,-0.00810315,3.28716,20,0.3
2.0,0.0702584,-0.00672439,3.28719,20,0.3
3.0,0.0688434,-0.00625646,3.28723,20,0.3
5.0,0.0671367,-0.00588265,3.28726,20,0.3
8.0,0.0656109,-0.00571273,3.28727,20,0.3
10.0,0.064882,-0.00571786,3.28729,20,0.3
11.0,0.0645964,-0.00570268,3.28729,20,0.3
21.0,0.0623784,-0.00591828,3.28729,20,0.3
31.0,0.0609259,-0.00618521,3.28731,20,0.3
61.0,0.058036,-0.00656618,3.28731,20,0.3
81.0,0.0567324,-0.00663354,3.28732,20,0.3
100.0,0.0557199,-0.00664122,3.2873,20,0.3
110.0,0.0552803,-0.00663234,3.2873,20,0.3
210.0,0.0521267,-0.00624339,3.28729,20,0.3
310.0,0.0502676,-0.00572775,3.28729,20,0.3
510.0,0.0479894,-0.00465279,3.28731,20,0.3
810.0,0.0460429,-0.00313626,3.28729,20,0.3
1000.0,0.0451863,-0.0021923,3.28731,20,0.3

File: Hk_IFR14500_SoC_45_31-03-2023_22-15.csv
Frequency(Hz),R(ohm),X(ohm),V(V),T(deg C),Range(Ohm)
0.01,0.134789,-0.0562814,3.28414,20,0.3
0.02,0.112575,-0.0432954,3.28704,20,0.3
0.03,0.103567,-0.035629,3.28699,20,0.3
0.05,0.0953247,-0.0275515,3.28723,20,0.3
0.08,0.0896381,-0.0219396,3.28735,20,0.3
0.1,0.087354,-0.0197995,3.28743,20,0.3
0.2,0.08141,-0.0145632,3.28756,20,0.3
0.3,0.0786248,-0.0122694,3.28755,20,0.3
0.5,0.0757011,-0.00998962,3.2876,20,0.3
0.8,0.0734883,-0.00839844,3.28764,20,0.3
1.0,0.0725614,-0.00780102,3.28769,20,0.3
2.0,0.0700208,-0.00649952,3.28773,20,0.3
3.0,0.068653,-0.00603676,3.28776,20,0.3
5.0,0.0670175,-0.00568322,3.28779,20,0.3
8.0,0.06556,-0.00559441,3.28781,20,0.3
10.0,0.0648312,-0.00556938,3.28781,20,0.3
11.0,0.0645331,-0.00557912,3.28785,20,0.3
21.0,0.0623943,-0.00586408,3.28784,20,0.3
31.0,0.0609502,-0.00609877,3.28784,20,0.3
61.0,0.0580547,-0.00652767,3.28784,20,0.3
81.0,0.0567502,-0.00660865,3.28784,20,0.3
100.0,0.0557338,-0.00661612,3.28785,20,0.3
110.0,0.0552602,-0.00659925,3.28784,20,0.3
210.0,0.0521493,-0.00625041,3.28783,20,0.3
310.0,0.0502904,-0.00571927,3.28783,20,0.3
510.0,0.0480374,-0.00464993,3.28781,20,0.3
810.0,0.046068,-0.00310751,3.28784,20,0.3
1000.0,0.0452326,-0.00219967,3.28783,20,0.3

File: Hk_IFR14500_SoC_50_31-03-2023_21-15.csv
Frequency(Hz),R(ohm),X(ohm),V(V),T(deg C),Range(Ohm)
0.01,0.132782,-0.0556891,3.28548,20,0.3
0.02,0.110892,-0.0426904,3.2883,20,0.3
0.03,0.1021,-0.035015,3.28828,20,0.3
0.05,0.0940762,-0.0269646,3.28852,20,0.3
0.08,0.0885862,-0.0214063,3.28864,20,0.3
0.1,0.0863739,-0.0192713,3.28875,20,0.3
0.2,0.0806605,-0.0141243,3.28884,20,0.3
0.3,0.0779794,-0.0118749,3.28884,20,0.3
0.5,0.0751763,-0.00963643,3.28891,20,0.3
0.8,0.0730551,-0.00808705,3.28895,20,0.3
1.0,0.0721674,-0.00750581,3.28898,20,0.3
2.0,0.0697372,-0.00623329,3.28901,20,0.3
3.0,0.0684521,-0.00579101,3.28906,20,0.3
5.0,0.0668756,-0.00548382,3.28908,20,0.3
8.0,0.0654583,-0.00541555,3.2891,20,0.3
10.0,0.0647773,-0.00541494,3.2891,20,0.3
11.0,0.0644831,-0.00545999,3.28912,20,0.3
21.0,0.0623616,-0.00576792,3.28913,20,0.3
31.0,0.060936,-0.00609265,3.28914,20,0.3
61.0,0.0580645,-0.00645469,3.28914,20,0.3
81.0,0.0567613,-0.00656329,3.28915,20,0.3
100.0,0.0557826,-0.00659053,3.28912,20,0.3
110.0,0.0553196,-0.00657085,3.28913,20,0.3
210.0,0.0521813,-0.00623607,3.28913,20,0.3
310.0,0.0503367,-0.00572043,3.28915,20,0.3
510.0,0.0480817,-0.0046549,3.28913,20,0.3
810.0,0.0460936,-0.00314043,3.28914,20,0.3
1000.0,0.0452675,-0.00219538,3.28912,20,0.3

File: Hk_IFR14500_SoC_55_31-03-2023_20-27.csv
Frequency(Hz),R(ohm),X(ohm),V(V),T(deg C),Range(Ohm)
0.01,0.131378,-0.0565547,3.28758,20,0.3
0.02,0.10966,-0.0429758,3.29046,20,0.3
0.03,0.100995,-0.0351027,3.29053,20,0.3
0.05,0.09314,-0.0268602,3.29082,20,0.3
0.08,0.087787,-0.0212118,3.29098,20,0.3
0.1,0.0856478,-0.019067,3.2911,20,0.3
0.2,0.0800859,-0.0138839,3.29123,20,0.3
0.3,0.0774833,-0.0116311,3.29127,20,0.3
0.5,0.0747704,-0.00941746,3.29132,20,0.3
0.8,0.0727231,-0.00787916,3.29137,20,0.3
1.0,0.0718627,-0.00729639,3.29141,20,0.3
2.0,0.0695335,-0.00604898,3.29145,20,0.3
3.0,0.068294,-0.00563365,3.29148,20,0.3
5.0,0.0667687,-0.00533375,3.2915,20,0.3
8.0,0.065394,-0.00527977,3.29151,20,0.3
10.0,0.0647281,-0.00530753,3.29153,20,0.3
11.0,0.0644237,-0.00535545,3.29152,20,0.3
21.0,0.0623261,-0.00566639,3.29154,20,0.3
31.0,0.0609261,-0.00597413,3.29156,20,0.3
61.0,0.0580829,-0.00643823,3.29158,20,0.3
81.0,0.0567753,-0.00654546,3.29156,20,0.3
100.0,0.0557842,-0.00654211,3.29156,20,0.3
110.0,0.0553547,-0.00651911,3.29155,20,0.3
210.0,0.0522181,-0.00620979,3.29155,20,0.3
310.0,0.050355,-0.00570102,3.29154,20,0.3
510.0,0.0481059,-0.00464242,3.29156,20,0.3
810.0,0.0461216,-0.00313868,3.29155,20,0.3
1000.0,0.0452889,-0.00219917,3.29156,20,0.3

File: Hk_IFR14500_SoC_60_31-03-2023_19-26.csv
Frequency(Hz),R(ohm),X(ohm),V(V),T(deg C),Range(Ohm)
0.01,0.132339,-0.0650513,3.29816,20,0.3
0.02,0.109666,-0.0474044,3.30235,20,0.3
0.03,0.100816,-0.0380717,3.30312,20,0.3
0.05,0.0928233,-0.0286624,3.30381,20,0.3
0.08,0.0874221,-0.0223311,3.30421,20,0.3
0.1,0.0852709,-0.0199604,3.30447,20,0.3
0.2,0.0797004,-0.0142791,3.3047,20,0.3
0.3,0.0771146,-0.0118697,3.30479,20,0.3
0.5,0.0744298,-0.00951718,3.3049,20,0.3
0.8,0.0724079,-0.00790073,3.30495,20,0.3
1.0,0.0715551,-0.00729605,3.30501,20,0.3
2.0,0.0692742,-0.00600193,3.30505,20,0.3
3.0,0.0680633,-0.00555776,3.3051,20,0.3
5.0,0.0665877,-0.00525547,3.30512,20,0.3
8.0,0.0652306,-0.00520965,3.30513,20,0.3
10.0,0.0645827,-0.0052525,3.30517,20,0.3
11.0,0.0643032,-0.00527126,3.30518,20,0.3
21.0,0.0622175,-0.00562429,3.30518,20,0.3
31.0,0.0607968,-0.00598571,3.3052,20,0.3
61.0,0.0580012,-0.00637155,3.30521,20,0.3
81.0,0.0567483,-0.00645785,3.30519,20,0.3
100.0,0.0557558,-0.00650796,3.30519,20,0.3
110.0,0.0553079,-0.00649887,3.30519,20,0.3
210.0,0.052226,-0.00616919,3.3052,20,0.3
310.0,0.0503726,-0.00569971,3.30518,20,0.3
510.0,0.0480946,-0.00464476,3.30521,20,0.3
810.0,0.0461226,-0.00313448,3.30519,20,0.3
1000.0,0.0452863,-0.00220658,3.30522,20,0.3

File: Hk_IFR14500_SoC_65_31-03-2023_18-38.csv
Frequency(Hz),R(ohm),X(ohm),V(V),T(deg C),Range(Ohm)
0.01,0.132038,-0.0656367,3.31242,20,0.3
0.02,0.109206,-0.0474727,3.31825,20,0.3
0.03,0.100318,-0.0380322,3.31934,20,0.3
0.05,0.092311,-0.0285757,3.32017,20,0.3
0.08,0.0869128,-0.0222476,3.32063,20,0.3
0.1,0.0847744,-0.0198592,3.32092,20,0.3
0.2,0.0792414,-0.0142056,3.32117,20,0.3
0.3,0.0766791,-0.0117994,3.32129,20,0.3
0.5,0.0740036,-0.00944888,3.32138,20,0.3
0.8,0.0719901,-0.00783912,3.32145,20,0.3
1.0,0.0711559,-0.00723265,3.3215,20,0.3
2.0,0.0688899,-0.00591412,3.32156,20,0.3
3.0,0.0677156,-0.00547524,3.32162,20,0.3
5.0,0.0662642,-0.00518004,3.32162,20,0.3
8.0,0.0649463,-0.00513995,3.32165,20,0.3
10.0,0.0643077,-0.00513767,3.32167,20,0.3
11.0,0.0640346,-0.00516683,3.32169,20,0.3
21.0,0.0620039,-0.00554662,3.32168,20,0.3
31.0,0.0606086,-0.00580607,3.3217,20,0.3
61.0,0.0578724,-0.00624593,3.32171,20,0.3
81.0,0.0566078,-0.00636939,3.32169,20,0.3
100.0,0.0556765,-0.00639818,3.32171,20,0.3
110.0,0.0551778,-0.00642013,3.32169,20,0.3
210.0,0.05212,-0.00612934,3.3217,20,0.3
310.0,0.0503127,-0.00565511,3.3217,20,0.3
510.0,0.0480483,-0.00462343,3.32172,20,0.3
810.0,0.0460781,-0.0030978,3.3217,20,0.3
1000.0,0.0452256,-0.0022045,3.32171,20,0.3

File: Hk_IFR14500_SoC_70_31-03-2023_17-37.csv
Frequency(Hz),R(ohm),X(ohm),V(V),T(deg C),Range(Ohm)
0.01,0.12946,-0.0606486,3.32165,20,0.3
0.02,0.107067,-0.0445014,3.32495,20,0.3
0.03,0.0984282,-0.0357718,3.32514,20,0.3
0.05,0.0907553,-0.0269419,3.3255,20,0.3
0.08,0.0856042,-0.0210066,3.32572,20,0.3
0.1,0.0835643,-0.0187732,3.32585,20,0.3
0.2,0.0783036,-0.0134623,3.32598,20,0.3
0.3,0.0758597,-0.0112017,3.32603,20,0.3
0.5,0.0733016,-0.00897342,3.3261,20,0.3
0.8,0.0713864,-0.00744937,3.32615,20,0.3
1.0,0.0705965,-0.00688962,3.32619,20,0.3
2.0,0.0684389,-0.0056377,3.32623,20,0.3
3.0,0.0673043,-0.00521351,3.32625,20,0.3
5.0,0.0659389,-0.00497536,3.32627,20,0.3
8.0,0.064676,-0.00494689,3.32631,20,0.3
10.0,0.0640604,-0.004995,3.32631,20,0.3
11.0,0.0637727,-0.00502457,3.32632,20,0.3
21.0,0.0618174,-0.00536446,3.32633,20,0.3
31.0,0.0604756,-0.00570941,3.32635,20,0.3
61.0,0.0577442,-0.00616688,3.32635,20,0.3
81.0,0.0565313,-0.00628418,3.32633,20,0.3
100.0,0.0555813,-0.00633652,3.32635,20,0.3
110.0,0.0551229,-0.00632771,3.32632,20,0.3
210.0,0.0521059,-0.0060828,3.32633,20,0.3
310.0,0.0502673,-0.00561902,3.32634,20,0.3
510.0,0.0480112,-0.00461128,3.32634,20,0.3
810.0,0.0460175,-0.00309893,3.32634,20,0.3
1000.0,0.0451658,-0.00218721,3.32635,20,0.3

File: Hk_IFR14500_SoC_75_31-03-2023_16-49.csv
Frequency(Hz),R(ohm),X(ohm),V(V),T(deg C),Range(Ohm)
0.01,0.127513,-0.0581628,3.323,20,0.3
0.02,0.105607,-0.0429493,3.3257,20,0.3
0.03,0.0972157,-0.0345701,3.32577,20,0.3
0.05,0.089781,-0.0260241,3.32606,20,0.3
0.08,0.0848216,-0.0202718,3.32623,20,0.3
0.1,0.0828623,-0.0181134,3.32636,20,0.3
0.2,0.077803,-0.0129729,3.32647,20,0.3
0.3,0.0754513,-0.0107961,3.32652,20,0.3
0.5,0.0729957,-0.00865814,3.32656,20,0.3
0.8,0.0711516,-0.00719147,3.32661,20,0.3
1.0,0.0703797,-0.00664351,3.32666,20,0.3
2.0,0.068303,-0.00544692,3.3267,20,0.3
3.0,0.0672171,-0.00504291,3.32674,20,0.3
5.0,0.0659034,-0.00483001,3.32675,20,0.3
8.0,0.0646632,-0.00483467,3.32677,20,0.3
10.0,0.0640572,-0.00485259,3.32677,20,0.3
11.0,0.0638124,-0.00493506,3.32679,20,0.3
21.0,0.0618607,-0.00531111,3.3268,20,0.3
31.0,0.0605209,-0.00569307,3.32679,20,0.3
61.0,0.0578324,-0.00615997,3.3268,20,0.3
81.0,0.0565776,-0.00628985,3.3268,20,0.3
100.0,0.0556297,-0.00633498,3.32681,20,0.3
110.0,0.0551972,-0.00635019,3.32682,20,0.3
210.0,0.0521007,-0.00608971,3.3268,20,0.3
310.0,0.0502815,-0.00565373,3.3268,20,0.3
510.0,0.0480037,-0.00463791,3.32679,20,0.3
810.0,0.0460124,-0.00314841,3.32681,20,0.3
1000.0,0.045163,-0.00222695,3.3268,20,0.3

File: Hk_IFR14500_SoC_80_31-03-2023_15-49.csv
Frequency(Hz),R(ohm),X(ohm),V(V),T(deg C),Range(Ohm)
0.01,0.125515,-0.0559269,3.32383,20,0.3
0.02,0.104067,-0.0413772,3.32628,20,0.3
0.03,0.0958966,-0.0332509,3.3263,20,0.3
0.05,0.0887448,-0.0250044,3.32653,20,0.3
0.08,0.0839817,-0.0194339,3.32668,20,0.3
0.1,0.0821005,-0.0173503,3.32682,20,0.3
0.2,0.077275,-0.0124183,3.32691,20,0.3
0.3,0.0750296,-0.0103284,3.32694,20,0.3
0.5,0.0726815,-0.00828145,3.327,20,0.3
0.8,0.0709163,-0.006886,3.32704,20,0.3
1.0,0.0701905,-0.00636304,3.32708,20,0.3
2.0,0.0682115,-0.00523203,3.32712,20,0.3
3.0,0.0671628,-0.00485825,3.32715,20,0.3
5.0,0.0658953,-0.00467442,3.32716,20,0.3
8.0,0.0646952,-0.00470919,3.32718,20,0.3
10.0,0.064134,-0.00478804,3.32721,20,0.3
11.0,0.0638746,-0.00480922,3.32721,20,0.3
21.0,0.061948,-0.00526644,3.32721,20,0.3
31.0,0.0606279,-0.00565534,3.32721,20,0.3
61.0,0.0579258,-0.00618071,3.32721,20,0.3
81.0,0.0566709,-0.00631464,3.32721,20,0.3
100.0,0.055714,-0.00636781,3.3272,20,0.3
110.0,0.055267,-0.0063846,3.3272,20,0.3
210.0,0.0522054,-0.00612783,3.32721,20,0.3
310.0,0.0503303,-0.00570368,3.32721,20,0.3
510.0,0.048013,-0.00470176,3.32721,20,0.3
810.0,0.0460038,-0.00319834,3.32721,20,0.3
1000.0,0.0451516,-0.00227362,3.3272,20,0.3

File: Hk_IFR14500_SoC_85_31-03-2023_15-01.csv
Frequency(Hz),R(ohm),X(ohm),V(V),T(deg C),Range(Ohm)
0.01,0.123506,-0.053602,3.32408,20,0.3
0.02,0.102656,-0.0398213,3.3264,20,0.3
0.03,0.0947538,-0.0320215,3.32641,20,0.3
0.05,0.0878513,-0.0240353,3.32664,20,0.3
0.08,0.0832888,-0.0186545,3.32679,20,0.3
0.1,0.0814943,-0.0166462,3.32692,20,0.3
0.2,0.0768879,-0.011898,3.32703,20,0.3
0.3,0.0747454,-0.00988611,3.32706,20,0.3
0.5,0.0725072,-0.00794307,3.32712,20,0.3
0.8,0.0708187,-0.00660735,3.32716,20,0.3
1.0,0.0701215,-0.00611,3.32722,20,0.3
2.0,0.0682129,-0.00503128,3.32723,20,0.3
3.0,0.0672117,-0.00469482,3.32725,20,0.3
5.0,0.065989,-0.00452429,3.32728,20,0.3
8.0,0.0648567,-0.00461538,3.32729,20,0.3
10.0,0.0642746,-0.00470203,3.3273,20,0.3
11.0,0.0640152,-0.00473232,3.32732,20,0.3
21.0,0.0621383,-0.00522144,3.32731,20,0.3
31.0,0.0607955,-0.00564316,3.32733,20,0.3
61.0,0.0580848,-0.00619468,3.32733,20,0.3
81.0,0.0568167,-0.00633993,3.32733,20,0.3
100.0,0.0558547,-0.00642469,3.32733,20,0.3
110.0,0.0554086,-0.00643717,3.32732,20,0.3
210.0,0.0523229,-0.00619893,3.32732,20,0.3
310.0,0.050418,-0.00577331,3.32733,20,0.3
510.0,0.0480808,-0.00475206,3.32732,20,0.3
810.0,0.0460535,-0.00326552,3.32732,20,0.3
1000.0,0.045164,-0.0023235,3.32733,20,0.3

File: Hk_IFR14500_SoC_90_31-03-2023_14-00.csv
Frequency(Hz),R(ohm),X(ohm),V(V),T(deg C),Range(Ohm)
0.01,0.121127,-0.0515648,3.32455,20,0.3
0.02,0.101201,-0.0383362,3.32673,20,0.3
0.03,0.0936912,-0.030775,3.32671,20,0.3
0.05,0.087147,-0.0230206,3.32693,20,0.3
0.08,0.0828316,-0.0178278,3.32708,20,0.3
0.1,0.0811421,-0.015879,3.3272,20,0.3
0.2,0.0767994,-0.0113171,3.32731,20,0.3
0.3,0.0747823,-0.00940195,3.32733,20,0.3
0.5,0.072672,-0.00755056,3.3274,20,0.3
0.8,0.0710686,-0.00629278,3.32744,20,0.3
1.0,0.0704078,-0.00583682,3.32747,20,0.3
2.0,0.0685903,-0.00484061,3.3275,20,0.3
3.0,0.0676293,-0.00455352,3.32752,20,0.3
5.0,0.0664395,-0.00442959,3.32753,20,0.3
8.0,0.0653244,-0.00452389,3.32756,20,0.3
10.0,0.0647539,-0.00466882,3.32759,20,0.3
11.0,0.0645047,-0.00471059,3.3276,20,0.3
21.0,0.0626112,-0.00527073,3.32759,20,0.3
31.0,0.061264,-0.00572129,3.32759,20,0.3
61.0,0.0584519,-0.0063325,3.32759,20,0.3
81.0,0.0571683,-0.0064832,3.32761,20,0.3
100.0,0.0561976,-0.00658487,3.32758,20,0.3
110.0,0.0557576,-0.00657986,3.32759,20,0.3
210.0,0.0525382,-0.00637639,3.32759,20,0.3
310.0,0.0506166,-0.00594046,3.32759,20,0.3
510.0,0.0482205,-0.00491236,3.32758,20,0.3
810.0,0.0461585,-0.00338937,3.3276,20,0.3
1000.0,0.0452458,-0.0024507,3.3276,20,0.3

File: Hk_IFR14500_SoC_95_31-03-2023_13-12.csv
Frequency(Hz),R(ohm),X(ohm),V(V),T(deg C),Range(Ohm)
0.01,0.11781,-0.0497146,3.32503,20,0.3
0.02,0.0986333,-0.0367983,3.3271,20,0.3
0.03,0.0914698,-0.0294458,3.32714,20,0.3
0.05,0.085316,-0.0218995,3.32741,20,0.3
0.08,0.0813103,-0.0168456,3.32754,20,0.3
0.1,0.0797624,-0.0149771,3.3277,20,0.3
0.2,0.0757789,-0.0105787,3.32781,20,0.3
0.3,0.0739346,-0.00876276,3.32786,20,0.3
0.5,0.0719927,-0.00703089,3.32792,20,0.3
0.8,0.0705294,-0.00586334,3.32795,20,0.3
1.0,0.0698985,-0.00543787,3.32797,20,0.3
2.0,0.0682089,-0.00453821,3.32802,20,0.3
3.0,0.0673219,-0.0042823,3.32803,20,0.3
5.0,0.0662029,-0.00419276,3.32807,20,0.3
8.0,0.0651398,-0.00434106,3.32807,20,0.3
10.0,0.064605,-0.00447761,3.32809,20,0.3
11.0,0.0643719,-0.00456701,3.32809,20,0.3
21.0,0.0625309,-0.0051636,3.3281,20,0.3
31.0,0.061225,-0.00562366,3.3281,20,0.3
61.0,0.0584614,-0.00625533,3.32811,20,0.3
81.0,0.0571554,-0.00643638,3.3281,20,0.3
100.0,0.0561762,-0.00655065,3.3281,20,0.3
110.0,0.0557374,-0.00653748,3.3281,20,0.3
210.0,0.0525452,-0.00638101,3.32809,20,0.3
310.0,0.0506119,-0.00593298,3.3281,20,0.3
510.0,0.048226,-0.00494025,3.3281,20,0.3
810.0,0.0461281,-0.00342166,3.3281,20,0.3
1000.0,0.045235,-0.00248276,3.32811,20,0.3

File: Hk_IFR14500_SoC_100_31-03-2023_12-11.csv
Frequency(Hz),R(ohm),X(ohm),V(V),T(deg C),Range(Ohm)
0.01,0.123399,-0.0976511,3.35363,20,0.3
0.02,0.104142,-0.0602477,3.35514,20,0.3
0.03,0.0967868,-0.0456309,3.35521,20,0.3
0.05,0.0899653,-0.0325574,3.35552,20,0.3
0.08,0.0851313,-0.0243938,3.35569,20,0.3
0.1,0.0831792,-0.0214496,3.35581,20,0.3
0.2,0.0780626,-0.0146383,3.35595,20,0.3
0.3,0.0756918,-0.0118621,3.35598,20,0.3
0.5,0.0732522,-0.00923001,3.35604,20,0.3
0.8,0.0714518,-0.00745582,3.35609,20,0.3
1.0,0.0707013,-0.00679429,3.35612,20,0.3
2.0,0.068745,-0.00539657,3.35615,20,0.3
3.0,0.0677413,-0.0049412,3.35619,20,0.3
5.0,0.0665075,-0.0046972,3.35621,20,0.3
8.0,0.0653857,-0.00471499,3.35622,20,0.3
10.0,0.0648085,-0.0048413,3.35624,20,0.3
11.0,0.064558,-0.00486937,3.35625,20,0.3
21.0,0.0626076,-0.00539017,3.35625,20,0.3
31.0,0.0612202,-0.00584966,3.35627,20,0.3
61.0,0.0584206,-0.00643635,3.35626,20,0.3
81.0,0.057139,-0.00663911,3.35627,20,0.3
100.0,0.056097,-0.00669895,3.35626,20,0.3
110.0,0.0556597,-0.00670305,3.35625,20,0.3
210.0,0.0523804,-0.006537,3.35626,20,0.3
310.0,0.0504122,-0.00608691,3.35626,20,0.3
510.0,0.047971,-0.0050548,3.35627,20,0.3
810.0,0.045827,-0.00351391,3.35626,20,0.3
1000.0,0.0449275,-0.00256269,3.35626,20,0.3