Folder: virtualizacija-procesa/Baterija/SoC Estimation on Li-ion Batteries A New EIS-based Dataset for data-driven applications/B11/EIS measurements/Test_2/Hioki

File: Hk_IFR14500_SoC_5_27-04-2023_09-32.csv
Frequency(Hz),R(ohm),X(ohm),V(V),T(deg C),Range(Ohm)
0.01,0.164068,-0.0843698,3.18553,20,0.3
0.02,0.135846,-0.0622153,3.19066,20,0.3
0.03,0.123649,-0.0511693,3.19099,20,0.3
0.05,0.111908,-0.0400845,3.19152,20,0.3
0.08,0.103397,-0.0323777,3.19173,20,0.3
0.1,0.0998788,-0.0293497,3.19189,20,0.3
0.2,0.0907644,-0.0220113,3.19209,20,0.3
0.3,0.0864205,-0.0187574,3.1921,20,0.3
0.5,0.0817712,-0.015493,3.19217,20,0.3
0.8,0.0781473,-0.0131812,3.19224,20,0.3
1.0,0.0765865,-0.0122589,3.1923,20,0.3
2.0,0.0722833,-0.00993538,3.19235,20,0.3
3.0,0.0701098,-0.0088655,3.1924,20,0.3
5.0,0.067702,-0.0076729,3.19243,20,0.3
8.0,0.0658527,-0.00686773,3.19248,20,0.3
10.0,0.0650682,-0.00660715,3.19249,20,0.3
11.0,0.0647294,-0.00646584,3.19251,20,0.3
21.0,0.0625235,-0.00621535,3.19254,20,0.3
31.0,0.061121,-0.00626045,3.19253,20,0.3
61.0,0.0583409,-0.00638359,3.19253,20,0.3
81.0,0.0570763,-0.006397,3.19254,20,0.3
100.0,0.0561141,-0.00634256,3.19253,20,0.3
110.0,0.0556599,-0.00633434,3.19253,20,0.3
210.0,0.0526907,-0.00576572,3.19253,20,0.3
310.0,0.0509864,-0.00515361,3.19254,20,0.3
510.0,0.048937,-0.00394036,3.19253,20,0.3
810.0,0.0471837,-0.00230972,3.19254,20,0.3
1000.0,0.0464491,-0.00134755,3.19254,20,0.3

File: Hk_IFR14500_SoC_10_27-04-2023_08-31.csv
Frequency(Hz),R(ohm),X(ohm),V(V),T(deg C),Range(Ohm)
0.01,0.159249,-0.0751711,3.19887,20,0.3
0.02,0.13218,-0.0565988,3.20303,20,0.3
0.03,0.120602,-0.0468588,3.20315,20,0.3
0.05,0.109527,-0.0369506,3.20348,20,0.3
0.08,0.101506,-0.0299888,3.20362,20,0.3
0.1,0.0982023,-0.027249,3.20373,20,0.3
0.2,0.0895936,-0.0205391,3.20387,20,0.3
0.3,0.0854966,-0.0175341,3.20385,20,0.3
0.5,0.0811441,-0.0145108,3.20391,20,0.3
0.8,0.0777449,-0.0123598,3.20396,20,0.3
1.0,0.0762899,-0.0115022,3.20401,20,0.3
2.0,0.0722697,-0.00941897,3.20405,20,0.3
3.0,0.0701863,-0.00843255,3.20411,20,0.3
5.0,0.067869,-0.00743777,3.20416,20,0.3
8.0,0.0660537,-0.00671958,3.20416,20,0.3
10.0,0.0652594,-0.00647286,3.20419,20,0.3
11.0,0.064941,-0.00642224,3.20421,20,0.3
21.0,0.0627164,-0.00625811,3.2042,20,0.3
31.0,0.0612283,-0.00630355,3.20421,20,0.3
61.0,0.0584309,-0.00648572,3.20423,20,0.3
81.0,0.0571434,-0.00650236,3.20422,20,0.3
100.0,0.0561935,-0.00644449,3.20421,20,0.3
110.0,0.0557412,-0.00642316,3.20421,20,0.3
210.0,0.0527302,-0.00589187,3.20421,20,0.3
310.0,0.0509258,-0.00524681,3.2042,20,0.3
510.0,0.0488651,-0.00403464,3.20423,20,0.3
810.0,0.0470781,-0.00238564,3.20421,20,0.3
1000.0,0.0463089,-0.00142545,3.20421,20,0.3

File: Hk_IFR14500_SoC_15_27-04-2023_07-43.csv
Frequency(Hz),R(ohm),X(ohm),V(V),T(deg C),Range(Ohm)
0.01,0.155744,-0.0725398,3.21836,20,0.3
0.02,0.129817,-0.0548845,3.22263,20,0.3
0.03,0.118719,-0.0455232,3.22281,20,0.3
0.05,0.108044,-0.0358663,3.22319,20,0.3
0.08,0.10032,-0.0290824,3.22337,20,0.3
0.1,0.0971368,-0.0264222,3.22347,20,0.3
0.2,0.0888412,-0.0198799,3.22363,20,0.3
0.3,0.084892,-0.0169475,3.22364,20,0.3
0.5,0.0806919,-0.0139963,3.22371,20,0.3
0.8,0.0774463,-0.0119026,3.22375,20,0.3
1.0,0.0760615,-0.0110825,3.22379,20,0.3
2.0,0.0722133,-0.00908428,3.22386,20,0.3
3.0,0.0702093,-0.00818046,3.22391,20,0.3
5.0,0.0679888,-0.00725005,3.22395,20,0.3
8.0,0.0661742,-0.00663011,3.22396,20,0.3
10.0,0.0653958,-0.00644614,3.22398,20,0.3
11.0,0.0650662,-0.0063593,3.22399,20,0.3
21.0,0.0628334,-0.00620766,3.22402,20,0.3
31.0,0.0613496,-0.00633678,3.22402,20,0.3
61.0,0.0585127,-0.00651263,3.22403,20,0.3
81.0,0.0572417,-0.0065292,3.22402,20,0.3
100.0,0.0562459,-0.00649817,3.224,20,0.3
110.0,0.0557958,-0.00648115,3.22401,20,0.3
210.0,0.0527643,-0.00596024,3.22402,20,0.3
310.0,0.0509616,-0.00531466,3.22403,20,0.3
510.0,0.0488379,-0.00410424,3.22401,20,0.3
810.0,0.0470342,-0.00245757,3.22402,20,0.3
1000.0,0.0462546,-0.001472,3.22402,20,0.3

File: Hk_IFR14500_SoC_20_27-04-2023_06-42.csv
Frequency(Hz),R(ohm),X(ohm),V(V),T(deg C),Range(Ohm)
0.01,0.151192,-0.0682576,3.24326,20,0.3
0.02,0.126222,-0.0519575,3.24714,20,0.3
0.03,0.115606,-0.0431005,3.24721,20,0.3
0.05,0.105463,-0.0339195,3.24754,20,0.3
0.08,0.0981632,-0.0274755,3.24767,20,0.3
0.1,0.0951661,-0.0249424,3.24776,20,0.3
0.2,0.0873471,-0.0187142,3.24789,20,0.3
0.3,0.0836355,-0.0159253,3.24789,20,0.3
0.5,0.0797126,-0.0131293,3.24795,20,0.3
0.8,0.0766864,-0.0111408,3.24801,20,0.3
1.0,0.0753962,-0.0103657,3.24803,20,0.3
2.0,0.0718533,-0.00852913,3.24809,20,0.3
3.0,0.0699854,-0.0077277,3.24813,20,0.3
5.0,0.0678624,-0.00695212,3.24816,20,0.3
8.0,0.0661073,-0.00642324,3.24819,20,0.3
10.0,0.0653234,-0.00624317,3.24821,20,0.3
11.0,0.0650176,-0.00622494,3.24821,20,0.3
21.0,0.0627904,-0.0061226,3.24822,20,0.3
31.0,0.0613364,-0.00626361,3.24823,20,0.3
61.0,0.0584993,-0.00650621,3.24824,20,0.3
81.0,0.0571928,-0.00652799,3.24824,20,0.3
100.0,0.0562318,-0.00650395,3.24823,20,0.3
110.0,0.0557746,-0.00647013,3.24823,20,0.3
210.0,0.0527227,-0.00597856,3.24823,20,0.3
310.0,0.0509063,-0.00536928,3.24823,20,0.3
510.0,0.0487595,-0.00414941,3.24824,20,0.3
810.0,0.0469324,-0.00249645,3.24824,20,0.3
1000.0,0.0461557,-0.00152623,3.24823,20,0.3

File: Hk_IFR14500_SoC_25_27-04-2023_05-54.csv
Frequency(Hz),R(ohm),X(ohm),V(V),T(deg C),Range(Ohm)
0.01,0.147844,-0.0647896,3.25606,20,0.3
0.02,0.123642,-0.0496817,3.25974,20,0.3
0.03,0.113406,-0.041268,3.2598,20,0.3
0.05,0.103668,-0.032478,3.26009,20,0.3
0.08,0.0966732,-0.0262755,3.26021,20,0.3
0.1,0.0938244,-0.0238589,3.26031,20,0.3
0.2,0.086354,-0.0178769,3.26043,20,0.3
0.3,0.0828201,-0.0151992,3.26042,20,0.3
0.5,0.0790841,-0.0124941,3.26048,20,0.3
0.8,0.0762226,-0.0105831,3.26052,20,0.3
1.0,0.0750132,-0.00985272,3.26057,20,0.3
2.0,0.0716597,-0.00812693,3.26062,20,0.3
3.0,0.0698961,-0.00740798,3.26067,20,0.3
5.0,0.0678433,-0.00670877,3.26068,20,0.3
8.0,0.0661483,-0.00628874,3.26071,20,0.3
10.0,0.0653775,-0.00612659,3.26072,20,0.3
11.0,0.0650784,-0.00608495,3.26075,20,0.3
21.0,0.0628424,-0.00610373,3.26074,20,0.3
31.0,0.0613727,-0.00627995,3.26077,20,0.3
61.0,0.0585282,-0.00650062,3.26077,20,0.3
81.0,0.0572512,-0.00656381,3.26074,20,0.3
100.0,0.0562634,-0.00653681,3.26075,20,0.3
110.0,0.0558082,-0.0065142,3.26075,20,0.3
210.0,0.0526925,-0.00600002,3.26075,20,0.3
310.0,0.0508933,-0.00541275,3.26077,20,0.3
510.0,0.0487431,-0.00421707,3.26075,20,0.3
810.0,0.0468874,-0.00254922,3.26075,20,0.3
1000.0,0.0460901,-0.00155911,3.26075,20,0.3

File: Hk_IFR14500_SoC_30_27-04-2023_04-54.csv
Frequency(Hz),R(ohm),X(ohm),V(V),T(deg C),Range(Ohm)
0.01,0.144281,-0.0624045,3.27308,20,0.3
0.02,0.120703,-0.0478098,3.27725,20,0.3
0.03,0.110819,-0.0396281,3.27748,20,0.3
0.05,0.101488,-0.0310792,3.27785,20,0.3
0.08,0.0948447,-0.0250747,3.27804,20,0.3
0.1,0.0921322,-0.0227416,3.27815,20,0.3
0.2,0.0850571,-0.0169773,3.2783,20,0.3
0.3,0.0817182,-0.0144077,3.27831,20,0.3
0.5,0.078197,-0.0118123,3.27837,20,0.3
0.8,0.0755168,-0.00998519,3.27843,20,0.3
1.0,0.0743773,-0.00927758,3.27845,20,0.3
2.0,0.0712535,-0.00765512,3.27851,20,0.3
3.0,0.0696249,-0.00703113,3.27855,20,0.3
5.0,0.0676881,-0.00642546,3.27857,20,0.3
8.0,0.0660283,-0.00605442,3.2786,20,0.3
10.0,0.0652786,-0.00594152,3.27862,20,0.3
11.0,0.0649835,-0.00596536,3.27864,20,0.3
21.0,0.0627881,-0.00598967,3.27865,20,0.3
31.0,0.0613234,-0.00615318,3.27865,20,0.3
61.0,0.0585106,-0.00644567,3.27864,20,0.3
81.0,0.0572305,-0.00650184,3.27865,20,0.3
100.0,0.0562559,-0.00649432,3.27864,20,0.3
110.0,0.0557845,-0.00649167,3.27864,20,0.3
210.0,0.052711,-0.00600741,3.27864,20,0.3
310.0,0.0509019,-0.00542835,3.27863,20,0.3
510.0,0.0487086,-0.00422488,3.27864,20,0.3
810.0,0.0468478,-0.0025801,3.27864,20,0.3
1000.0,0.0460416,-0.0015891,3.27865,20,0.3

File: Hk_IFR14500_SoC_35_27-04-2023_04-06.csv
Frequency(Hz),R(ohm),X(ohm),V(V),T(deg C),Range(Ohm)
0.01,0.141677,-0.0605161,3.28001,20,0.3
0.02,0.118537,-0.0464428,3.28386,20,0.3
0.03,0.108926,-0.0384524,3.28402,20,0.3
0.05,0.0999028,-0.0300824,3.28438,20,0.3
0.08,0.093506,-0.0242222,3.28453,20,0.3
0.1,0.0909156,-0.0219502,3.28464,20,0.3
0.2,0.0841254,-0.0163308,3.28478,20,0.3
0.3,0.0809348,-0.0138344,3.2848,20,0.3
0.5,0.0775712,-0.0113152,3.28485,20,0.3
0.8,0.0750277,-0.00955086,3.2849,20,0.3
1.0,0.0739526,-0.00887006,3.28495,20,0.3
2.0,0.070985,-0.00732249,3.28499,20,0.3
3.0,0.0694323,-0.00674311,3.28503,20,0.3
5.0,0.0675842,-0.00620288,3.28504,20,0.3
8.0,0.0659848,-0.0059014,3.28507,20,0.3
10.0,0.0652625,-0.00583512,3.28509,20,0.3
11.0,0.0649502,-0.00580703,3.2851,20,0.3
21.0,0.0627877,-0.00592334,3.28511,20,0.3
31.0,0.0613398,-0.00607398,3.2851,20,0.3
61.0,0.0585293,-0.00642658,3.28513,20,0.3
81.0,0.057245,-0.00648155,3.28513,20,0.3
100.0,0.0562792,-0.00648142,3.28511,20,0.3
110.0,0.0558126,-0.00645295,3.28511,20,0.3
210.0,0.0527375,-0.00602762,3.28512,20,0.3
310.0,0.0509233,-0.00541814,3.28512,20,0.3
510.0,0.0487403,-0.00424615,3.28511,20,0.3
810.0,0.046856,-0.00259894,3.28511,20,0.3
1000.0,0.0460784,-0.00162165,3.28512,20,0.3

File: Hk_IFR14500_SoC_40_27-04-2023_03-05.csv
Frequency(Hz),R(ohm),X(ohm),V(V),T(deg C),Range(Ohm)
0.01,0.139122,-0.0588827,3.28275,20,0.3
0.02,0.116345,-0.0451871,3.28595,20,0.3
0.03,0.106986,-0.0373374,3.28595,20,0.3
0.05,0.0982498,-0.0291042,3.2862,20,0.3
0.08,0.0921163,-0.0233729,3.28631,20,0.3
0.1,0.0896269,-0.021149,3.28641,20,0.3
0.2,0.0831368,-0.0156835,3.2865,20,0.3
0.3,0.0800874,-0.0132581,3.2865,20,0.3
0.5,0.0768852,-0.0108155,3.28656,20,0.3
0.8,0.0744645,-0.00910472,3.2866,20,0.3
1.0,0.0734457,-0.00844352,3.28665,20,0.3
2.0,0.070669,-0.0069997,3.28669,20,0.3
3.0,0.0691859,-0.00643555,3.28672,20,0.3
5.0,0.0674112,-0.00594526,3.28674,20,0.3
8.0,0.065882,-0.00571978,3.28676,20,0.3
10.0,0.0651784,-0.00564553,3.28678,20,0.3
11.0,0.0648664,-0.00565737,3.28679,20,0.3
21.0,0.0627473,-0.00584052,3.2868,20,0.3
31.0,0.0613306,-0.00605701,3.28681,20,0.3
61.0,0.058537,-0.00634717,3.28679,20,0.3
81.0,0.0572688,-0.00645418,3.28681,20,0.3
100.0,0.056279,-0.00643998,3.28678,20,0.3
110.0,0.0558373,-0.0064316,3.2868,20,0.3
210.0,0.0527695,-0.0059961,3.28679,20,0.3
310.0,0.0509552,-0.00541816,3.28681,20,0.3
510.0,0.0487729,-0.0042328,3.2868,20,0.3
810.0,0.0468937,-0.00260125,3.28681,20,0.3
1000.0,0.0460962,-0.00162346,3.28681,20,0.3

File: Hk_IFR14500_SoC_45_27-04-2023_02-17.csv
Frequency(Hz),R(ohm),X(ohm),V(V),T(deg C),Range(Ohm)
0.01,0.137055,-0.0572786,3.28349,20,0.3
0.02,0.114663,-0.0441047,3.28653,20,0.3
0.03,0.105506,-0.0364283,3.2865,20,0.3
0.05,0.0970078,-0.0283435,3.28674,20,0.3
0.08,0.0910638,-0.0227152,3.28687,20,0.3
0.1,0.0886694,-0.0205414,3.28696,20,0.3
0.2,0.0823932,-0.0151935,3.28705,20,0.3
0.3,0.0794623,-0.0128277,3.28706,20,0.3
0.5,0.0763803,-0.0104453,3.28712,20,0.3
0.8,0.0740548,-0.00876782,3.28716,20,0.3
1.0,0.0730847,-0.0081388,3.28721,20,0.3
2.0,0.0704195,-0.00672561,3.28723,20,0.3
3.0,0.0690197,-0.00620165,3.28728,20,0.3
5.0,0.0673045,-0.0057517,3.28729,20,0.3
8.0,0.0658512,-0.00559125,3.28732,20,0.3
10.0,0.0651442,-0.00554726,3.28734,20,0.3
11.0,0.0648383,-0.00553893,3.28736,20,0.3
21.0,0.0627408,-0.00569493,3.28735,20,0.3
31.0,0.0613266,-0.00597185,3.28736,20,0.3
61.0,0.0585572,-0.00632225,3.28736,20,0.3
81.0,0.0572894,-0.006413,3.28738,20,0.3
100.0,0.056297,-0.00639449,3.28736,20,0.3
110.0,0.0558493,-0.00641306,3.28735,20,0.3
210.0,0.0527928,-0.00600003,3.28735,20,0.3
310.0,0.0509828,-0.00539782,3.28736,20,0.3
510.0,0.0487994,-0.0042492,3.28736,20,0.3
810.0,0.0469186,-0.00258173,3.28736,20,0.3
1000.0,0.0461063,-0.00160669,3.28736,20,0.3

File: Hk_IFR14500_SoC_50_27-04-2023_01-16.csv
Frequency(Hz),R(ohm),X(ohm),V(V),T(deg C),Range(Ohm)
0.01,0.134914,-0.0563812,3.28473,20,0.3
0.02,0.112874,-0.0432834,3.28764,20,0.3
0.03,0.103938,-0.0356537,3.28762,20,0.3
0.05,0.0956903,-0.0276418,3.28786,20,0.3
0.08,0.0899484,-0.0220859,3.28797,20,0.3
0.1,0.0876368,-0.0199501,3.28805,20,0.3
0.2,0.0816007,-0.0147024,3.28816,20,0.3
0.3,0.078776,-0.0123727,3.28816,20,0.3
0.5,0.0758222,-0.0100401,3.28822,20,0.3
0.8,0.073602,-0.0084185,3.28825,20,0.3
1.0,0.0726789,-0.00780131,3.2883,20,0.3
2.0,0.0701472,-0.00644078,3.28833,20,0.3
3.0,0.0688117,-0.00595879,3.28838,20,0.3
5.0,0.0671962,-0.00558238,3.2884,20,0.3
8.0,0.0657425,-0.00540588,3.2884,20,0.3
10.0,0.0650837,-0.00540733,3.28842,20,0.3
11.0,0.0647804,-0.00543822,3.28843,20,0.3
21.0,0.0627149,-0.00566288,3.28845,20,0.3
31.0,0.0613301,-0.00587278,3.28845,20,0.3
61.0,0.058566,-0.00627918,3.28845,20,0.3
81.0,0.0572938,-0.00636435,3.28844,20,0.3
100.0,0.0563478,-0.00637643,3.28845,20,0.3
110.0,0.0558529,-0.00635118,3.28843,20,0.3
210.0,0.0528093,-0.00597991,3.28845,20,0.3
310.0,0.0510188,-0.00538418,3.28843,20,0.3
510.0,0.0488256,-0.00423599,3.28845,20,0.3
810.0,0.0469587,-0.00259516,3.28844,20,0.3
1000.0,0.0461592,-0.00162187,3.28846,20,0.3

File: Hk_IFR14500_SoC_55_27-04-2023_00-28.csv
Frequency(Hz),R(ohm),X(ohm),V(V),T(deg C),Range(Ohm)
0.01,0.133151,-0.056182,3.2861,20,0.3
0.02,0.11142,-0.0429498,3.28898,20,0.3
0.03,0.102653,-0.0352683,3.289,20,0.3
0.05,0.0946078,-0.0272241,3.28926,20,0.3
0.08,0.0890299,-0.0216633,3.28939,20,0.3
0.1,0.0867907,-0.0195395,3.2895,20,0.3
0.2,0.0809465,-0.0143263,3.28962,20,0.3
0.3,0.078217,-0.0120469,3.28963,20,0.3
0.5,0.0753576,-0.00974906,3.28968,20,0.3
0.8,0.0732245,-0.00815073,3.28973,20,0.3
1.0,0.0723339,-0.0075527,3.28975,20,0.3
2.0,0.069896,-0.00622324,3.2898,20,0.3
3.0,0.0686069,-0.00575294,3.28983,20,0.3
5.0,0.0670741,-0.0054243,3.28987,20,0.3
8.0,0.0656651,-0.00528003,3.28987,20,0.3
10.0,0.0650059,-0.0052792,3.2899,20,0.3
11.0,0.0647217,-0.00530526,3.28991,20,0.3
21.0,0.0627017,-0.00555593,3.28991,20,0.3
31.0,0.0613116,-0.00582902,3.28992,20,0.3
61.0,0.0585361,-0.00623472,3.28992,20,0.3
81.0,0.0573224,-0.00630421,3.28991,20,0.3
100.0,0.0563387,-0.00634121,3.28991,20,0.3
110.0,0.0558919,-0.00631344,3.2899,20,0.3
210.0,0.0528689,-0.00595008,3.2899,20,0.3
310.0,0.0510327,-0.0053881,3.2899,20,0.3
510.0,0.0488431,-0.00423154,3.28991,20,0.3
810.0,0.0469818,-0.0025981,3.28991,20,0.3
1000.0,0.0461796,-0.00161712,3.28991,20,0.3

File: Hk_IFR14500_SoC_60_26-04-2023_23-28.csv
Frequency(Hz),R(ohm),X(ohm),V(V),T(deg C),Range(Ohm)
0.01,0.132301,-0.0594237,3.29111,20,0.3
0.02,0.110355,-0.0445252,3.29445,20,0.3
0.03,0.101627,-0.0362202,3.29476,20,0.3
0.05,0.0936561,-0.0276679,3.29517,20,0.3
0.08,0.0881862,-0.0218213,3.29542,20,0.3
0.1,0.0860003,-0.0196092,3.29558,20,0.3
0.2,0.0802909,-0.0142269,3.29573,20,0.3
0.3,0.0776377,-0.0118964,3.29576,20,0.3
0.5,0.0748777,-0.00958061,3.29584,20,0.3
0.8,0.0728059,-0.00797582,3.2959,20,0.3
1.0,0.0719564,-0.00738388,3.29593,20,0.3
2.0,0.0696,-0.00604979,3.29599,20,0.3
3.0,0.0683733,-0.00559673,3.296,20,0.3
5.0,0.0668872,-0.00528569,3.29604,20,0.3
8.0,0.0655245,-0.0051585,3.29607,20,0.3
10.0,0.0648665,-0.0051667,3.29608,20,0.3
11.0,0.0645981,-0.0051972,3.29608,20,0.3
21.0,0.062608,-0.00546896,3.29609,20,0.3
31.0,0.0612611,-0.00574917,3.2961,20,0.3
61.0,0.058511,-0.00619623,3.29611,20,0.3
81.0,0.0572782,-0.0062677,3.2961,20,0.3
100.0,0.0563024,-0.0062703,3.29611,20,0.3
110.0,0.0558586,-0.00628473,3.29611,20,0.3
210.0,0.052833,-0.0059017,3.29609,20,0.3
310.0,0.0510299,-0.005351,3.29609,20,0.3
510.0,0.0488388,-0.00420283,3.29611,20,0.3
810.0,0.046972,-0.00259162,3.2961,20,0.3
1000.0,0.0461566,-0.00160592,3.29609,20,0.3

File: Hk_IFR14500_SoC_65_26-04-2023_22-40.csv
Frequency(Hz),R(ohm),X(ohm),V(V),T(deg C),Range(Ohm)
0.01,0.133368,-0.0656546,3.30428,20,0.3
0.02,0.110676,-0.0479731,3.31,20,0.3
0.03,0.101714,-0.0386465,3.31128,20,0.3
0.05,0.0935575,-0.0291938,3.31226,20,0.3
0.08,0.0879846,-0.0228182,3.31282,20,0.3
0.1,0.0857691,-0.0204002,3.31315,20,0.3
0.2,0.0800099,-0.014635,3.31347,20,0.3
0.3,0.0773402,-0.0121605,3.31358,20,0.3
0.5,0.074575,-0.00972174,3.31368,20,0.3
0.8,0.0725037,-0.00804186,3.31378,20,0.3
1.0,0.0716533,-0.00741692,3.31386,20,0.3
2.0,0.0693244,-0.00602806,3.3139,20,0.3
3.0,0.068128,-0.00557692,3.31395,20,0.3
5.0,0.0666404,-0.00522286,3.31398,20,0.3
8.0,0.0653106,-0.00510502,3.314,20,0.3
10.0,0.064672,-0.00510583,3.31404,20,0.3
11.0,0.0644176,-0.00517135,3.31405,20,0.3
21.0,0.062423,-0.00539835,3.31404,20,0.3
31.0,0.061068,-0.00567363,3.31406,20,0.3
61.0,0.0583811,-0.0061138,3.31407,20,0.3
81.0,0.0571181,-0.00618511,3.31406,20,0.3
100.0,0.0561979,-0.00623267,3.31407,20,0.3
110.0,0.0557642,-0.00621377,3.31405,20,0.3
210.0,0.0527457,-0.0058846,3.31406,20,0.3
310.0,0.0509791,-0.00531313,3.31406,20,0.3
510.0,0.0487996,-0.00417472,3.31406,20,0.3
810.0,0.0469241,-0.00258081,3.31406,20,0.3
1000.0,0.0461252,-0.00158934,3.31407,20,0.3

File: Hk_IFR14500_SoC_70_26-04-2023_21-39.csv
Frequency(Hz),R(ohm),X(ohm),V(V),T(deg C),Range(Ohm)
0.01,0.131516,-0.0625029,3.3193,20,0.3
0.02,0.108946,-0.0456438,3.32335,20,0.3
0.03,0.100158,-0.0367397,3.32375,20,0.3
0.05,0.0922474,-0.0277701,3.3242,20,0.3
0.08,0.086892,-0.0217271,3.32445,20,0.3
0.1,0.0847554,-0.0194379,3.32463,20,0.3
0.2,0.0792374,-0.0139772,3.32479,20,0.3
0.3,0.0766738,-0.011632,3.32483,20,0.3
0.5,0.0740159,-0.00932103,3.32489,20,0.3
0.8,0.0720241,-0.00773581,3.32494,20,0.3
1.0,0.0711923,-0.00711392,3.325,20,0.3
2.0,0.0689573,-0.00580301,3.32504,20,0.3
3.0,0.0677987,-0.00536547,3.32508,20,0.3
5.0,0.0663867,-0.00506934,3.3251,20,0.3
8.0,0.065092,-0.00496279,3.32513,20,0.3
10.0,0.0644615,-0.00497578,3.32515,20,0.3
11.0,0.0642104,-0.0050182,3.32515,20,0.3
21.0,0.0622636,-0.0053306,3.32516,20,0.3
31.0,0.0609373,-0.00563549,3.32517,20,0.3
61.0,0.058288,-0.00606009,3.32516,20,0.3
81.0,0.0570566,-0.00614814,3.32515,20,0.3
100.0,0.0561159,-0.00615187,3.32518,20,0.3
110.0,0.0557076,-0.00617755,3.32517,20,0.3
210.0,0.0527008,-0.00584752,3.32517,20,0.3
310.0,0.0508977,-0.00530871,3.32516,20,0.3
510.0,0.04872,-0.00418906,3.32517,20,0.3
810.0,0.0468531,-0.00257214,3.32516,20,0.3
1000.0,0.046034,-0.00161347,3.32516,20,0.3

File: Hk_IFR14500_SoC_75_26-04-2023_20-51.csv
Frequency(Hz),R(ohm),X(ohm),V(V),T(deg C),Range(Ohm)
0.01,0.129191,-0.0593035,3.32167,20,0.3
0.02,0.10714,-0.0437358,3.3246,20,0.3
0.03,0.0986235,-0.0352602,3.32473,20,0.3
0.05,0.0910093,-0.0266489,3.32506,20,0.3
0.08,0.0858772,-0.0208306,3.32525,20,0.3
0.1,0.0838457,-0.0186375,3.32536,20,0.3
0.2,0.078572,-0.0133892,3.32549,20,0.3
0.3,0.0761292,-0.0111389,3.32552,20,0.3
0.5,0.0735822,-0.00893499,3.32559,20,0.3
0.8,0.0716718,-0.00741259,3.32564,20,0.3
1.0,0.0708779,-0.00683601,3.32568,20,0.3
2.0,0.068745,-0.00558753,3.32573,20,0.3
3.0,0.0676305,-0.00517542,3.32575,20,0.3
5.0,0.0662617,-0.00489159,3.32578,20,0.3
8.0,0.0650007,-0.00483261,3.3258,20,0.3
10.0,0.0644148,-0.00490167,3.32581,20,0.3
11.0,0.0641526,-0.00490331,3.32582,20,0.3
21.0,0.062242,-0.00525908,3.32583,20,0.3
31.0,0.0609056,-0.00556077,3.32583,20,0.3
61.0,0.0582739,-0.00601917,3.32585,20,0.3
81.0,0.0570617,-0.00614143,3.32582,20,0.3
100.0,0.0560962,-0.00617311,3.32584,20,0.3
110.0,0.0556727,-0.00618552,3.32583,20,0.3
210.0,0.0526843,-0.00585193,3.32583,20,0.3
310.0,0.0508798,-0.00532378,3.32583,20,0.3
510.0,0.0486779,-0.00421782,3.32583,20,0.3
810.0,0.0467972,-0.00260841,3.32582,20,0.3
1000.0,0.0459812,-0.00163777,3.32583,20,0.3

File: Hk_IFR14500_SoC_80_26-04-2023_19-50.csv
Frequency(Hz),R(ohm),X(ohm),V(V),T(deg C),Range(Ohm)
0.01,0.126673,-0.0566963,3.32252,20,0.3
0.02,0.105177,-0.0419699,3.32505,20,0.3
0.03,0.0969388,-0.033815,3.3251,20,0.3
0.05,0.0896384,-0.0254955,3.32538,20,0.3
0.08,0.0847614,-0.0198714,3.32553,20,0.3
0.1,0.0828275,-0.0177643,3.32565,20,0.3
0.2,0.0778426,-0.0127316,3.32576,20,0.3
0.3,0.0755274,-0.0105934,3.3258,20,0.3
0.5,0.073128,-0.00849793,3.32585,20,0.3
0.8,0.0713114,-0.00704803,3.32589,20,0.3
1.0,0.070564,-0.00650528,3.32594,20,0.3
2.0,0.0685366,-0.00533568,3.32596,20,0.3
3.0,0.0674664,-0.00495122,3.326,20,0.3
5.0,0.0661659,-0.00469659,3.32602,20,0.3
8.0,0.0649659,-0.00469492,3.32605,20,0.3
10.0,0.0643827,-0.00476887,3.32604,20,0.3
11.0,0.0641189,-0.00480284,3.32607,20,0.3
21.0,0.062243,-0.00525367,3.32607,20,0.3
31.0,0.0609481,-0.00550429,3.32608,20,0.3
61.0,0.0582919,-0.00600587,3.32608,20,0.3
81.0,0.0570955,-0.00613692,3.32608,20,0.3
100.0,0.0561525,-0.00616663,3.32606,20,0.3
110.0,0.0556763,-0.00617242,3.32605,20,0.3
210.0,0.0526949,-0.00586964,3.32607,20,0.3
310.0,0.050888,-0.00536318,3.32607,20,0.3
510.0,0.0486562,-0.00424421,3.32606,20,0.3
810.0,0.0467565,-0.00264023,3.32608,20,0.3
1000.0,0.0459316,-0.00164746,3.32608,20,0.3

File: Hk_IFR14500_SoC_85_26-04-2023_19-02.csv
Frequency(Hz),R(ohm),X(ohm),V(V),T(deg C),Range(Ohm)
0.01,0.124612,-0.0545859,3.32273,20,0.3
0.02,0.103621,-0.040522,3.32512,20,0.3
0.03,0.0956287,-0.0326306,3.32515,20,0.3
0.05,0.0886123,-0.0245426,3.32541,20,0.3
0.08,0.0839395,-0.019074,3.32557,20,0.3
0.1,0.0821039,-0.0170234,3.32571,20,0.3
0.2,0.0773823,-0.012161,3.32582,20,0.3
0.3,0.0751915,-0.0101064,3.32586,20,0.3
0.5,0.0729107,-0.00810782,3.32592,20,0.3
0.8,0.0711925,-0.006733,3.32595,20,0.3
1.0,0.0704776,-0.00622114,3.326,20,0.3
2.0,0.0685353,-0.00512129,3.32602,20,0.3
3.0,0.0675129,-0.00477181,3.32606,20,0.3
5.0,0.0662617,-0.00457698,3.32607,20,0.3
8.0,0.0650956,-0.00460067,3.32609,20,0.3
10.0,0.0645272,-0.0046619,3.32611,20,0.3
11.0,0.064283,-0.00473127,3.32612,20,0.3
21.0,0.062417,-0.00515694,3.32613,20,0.3
31.0,0.0610971,-0.00555394,3.32611,20,0.3
61.0,0.0584236,-0.00603867,3.32612,20,0.3
81.0,0.0571874,-0.00618902,3.32613,20,0.3
100.0,0.0562378,-0.00621171,3.32614,20,0.3
110.0,0.0558228,-0.00627388,3.32612,20,0.3
210.0,0.0527513,-0.00593986,3.32613,20,0.3
310.0,0.0509143,-0.00544722,3.32614,20,0.3
510.0,0.0486909,-0.00431488,3.32614,20,0.3
810.0,0.0467515,-0.00268853,3.32613,20,0.3
1000.0,0.0459353,-0.00171243,3.32612,20,0.3

File: Hk_IFR14500_SoC_90_26-04-2023_18-02.csv
Frequency(Hz),R(ohm),X(ohm),V(V),T(deg C),Range(Ohm)
0.01,0.122043,-0.0537909,3.32448,20,0.3
0.02,0.101762,-0.0397113,3.32676,20,0.3
0.03,0.09412,-0.0318578,3.32682,20,0.3
0.05,0.0874455,-0.0238275,3.32709,20,0.3
0.08,0.0830305,-0.0184202,3.32728,20,0.3
0.1,0.0812957,-0.0163993,3.32741,20,0.3
0.2,0.076847,-0.0116461,3.32752,20,0.3
0.3,0.074784,-0.009645,3.32757,20,0.3
0.5,0.0726436,-0.00771195,3.32763,20,0.3
0.8,0.0710129,-0.00640615,3.32767,20,0.3
1.0,0.0703397,-0.00592512,3.32772,20,0.3
2.0,0.068508,-0.00488746,3.32775,20,0.3
3.0,0.0675447,-0.0045867,3.32777,20,0.3
5.0,0.066353,-0.00442627,3.32779,20,0.3
8.0,0.0652405,-0.00448653,3.32782,20,0.3
10.0,0.0646575,-0.00458446,3.32783,20,0.3
11.0,0.0644108,-0.00461038,3.32783,20,0.3
21.0,0.0625908,-0.00517972,3.32783,20,0.3
31.0,0.0612816,-0.00551025,3.32783,20,0.3
61.0,0.0585956,-0.00610792,3.32785,20,0.3
81.0,0.0573487,-0.00625223,3.32785,20,0.3
100.0,0.0563603,-0.00629884,3.32783,20,0.3
110.0,0.0559405,-0.00629768,3.32784,20,0.3
210.0,0.0528583,-0.00602947,3.32784,20,0.3
310.0,0.0509779,-0.00551349,3.32784,20,0.3
510.0,0.0487222,-0.00438925,3.32784,20,0.3
810.0,0.0467518,-0.00277961,3.32784,20,0.3
1000.0,0.0459148,-0.00176918,3.32784,20,0.3

File: Hk_IFR14500_SoC_95_26-04-2023_17-14.csv
Frequency(Hz),R(ohm),X(ohm),V(V),T(deg C),Range(Ohm)
0.01,0.118789,-0.052816,3.32643,20,0.3
0.02,0.0993392,-0.0386222,3.32855,20,0.3
0.03,0.0920837,-0.0308378,3.32863,20,0.3
0.05,0.0857682,-0.0229159,3.32893,20,0.3
0.08,0.081622,-0.0176048,3.3291,20,0.3
0.1,0.0800087,-0.0156443,3.32925,20,0.3
0.2,0.0758651,-0.0110087,3.32938,20,0.3
0.3,0.0739553,-0.00909493,3.32941,20,0.3
0.5,0.0719593,-0.00725823,3.32947,20,0.3
0.8,0.070452,-0.00602474,3.32952,20,0.3
1.0,0.0698208,-0.00556903,3.32956,20,0.3
2.0,0.0680944,-0.00461379,3.3296,20,0.3
3.0,0.0671905,-0.00432736,3.32961,20,0.3
5.0,0.0660619,-0.00419377,3.32965,20,0.3
8.0,0.0650278,-0.00433459,3.32966,20,0.3
10.0,0.0644701,-0.00441802,3.32966,20,0.3
11.0,0.0642279,-0.0044774,3.32967,20,0.3
21.0,0.0624513,-0.00499913,3.32967,20,0.3
31.0,0.0611437,-0.00542649,3.32968,20,0.3
61.0,0.0585252,-0.00601747,3.32968,20,0.3
81.0,0.0572941,-0.00615527,3.32969,20,0.3
100.0,0.056317,-0.00621065,3.32969,20,0.3
110.0,0.0559036,-0.00622164,3.32968,20,0.3
210.0,0.0528201,-0.00600601,3.32968,20,0.3
310.0,0.0509906,-0.00549072,3.32967,20,0.3
510.0,0.0486921,-0.00438389,3.32968,20,0.3
810.0,0.0467599,-0.00276075,3.32967,20,0.3
1000.0,0.0459095,-0.00177558,3.32968,20,0.3

File: Hk_IFR14500_SoC_100_26-04-2023_16-13.csv
Frequency(Hz),R(ohm),X(ohm),V(V),T(deg C),Range(Ohm)
0.01,0.146555,-0.16067,3.38939,20,0.3
0.02,0.121611,-0.0961709,3.39043,20,0.3
0.03,0.111009,-0.0729262,3.38986,20,0.3
0.05,0.100152,-0.052364,3.38985,20,0.3
0.08,0.0921369,-0.0393045,3.38982,20,0.3
0.1,0.0889127,-0.0345148,3.38978,20,0.3
0.2,0.0805861,-0.0231083,3.38986,20,0.3
0.3,0.0769207,-0.0183598,3.38984,20,0.3
0.5,0.0733207,-0.0137954,3.38988,20,0.3
0.8,0.0708033,-0.0107142,3.38993,20,0.3
1.0,0.0698209,-0.00954966,3.38998,20,0.3
2.0,0.0673286,-0.00700072,3.39004,20,0.3
3.0,0.0661564,-0.00608857,3.39009,20,0.3
5.0,0.0647856,-0.00534973,3.39012,20,0.3
8.0,0.0635647,-0.00503759,3.39013,20,0.3
10.0,0.0630153,-0.00500071,3.39014,20,0.3
11.0,0.0627585,-0.00499684,3.39017,20,0.3
21.0,0.0609275,-0.00520252,3.39016,20,0.3
31.0,0.0596667,-0.00548954,3.39019,20,0.3
61.0,0.0570925,-0.00593739,3.39018,20,0.3
81.0,0.0558959,-0.00602387,3.39018,20,0.3
100.0,0.0549703,-0.00608409,3.39015,20,0.3
110.0,0.0545434,-0.00609145,3.39016,20,0.3
210.0,0.051602,-0.00579456,3.39016,20,0.3
310.0,0.0497986,-0.00530164,3.39016,20,0.3
510.0,0.0475976,-0.00419682,3.39016,20,0.3
810.0,0.0456784,-0.00258335,3.39016,20,0.3
1000.0,0.0448389,-0.00159532,3.39015,20,0.3